W_EDA,W_TEMP,W_BVP,W_ACCx,W_ACCy,W_ACCz,C_ECG,C_RESP,C_EMG,C_EDA,C_TEMP,C_ACCx,C_ACCy,C_ACCz
2.40752,34.13,70.3275,58.625,-21.75,-6.625,0.043092564174107145,-5.38165283203125,-0.002833426339285714,1.6191820417131697,34.681053,0.7605942862374442,0.010853713239942279,-0.5476480007171631
2.412636,34.13,66.519375,58.875,-15.875,-15.75,0.0021530587332589286,-4.985185895647321,-0.002373046875,1.6169193812779017,34.673695,0.7434914302825928,0.04997828381402152,-0.551995427949088
2.402403,34.11,-21.580625,56.0,-19.875,-14.25,0.040175432477678574,-4.273812430245536,-0.002335902622767857,1.616605486188616,34.669746,0.7499565676280431,0.04182400022234235,-0.5467645713261196
2.415195,34.11,-105.50999999999999,58.875,-20.0,-11.375,-0.03575055803571429,-3.6218697684151784,-0.0022964041573660713,1.6191820417131697,34.681255,0.7438754279272897,0.03432571547372001,-0.5606982854434422
2.402403,34.11,-42.82625,58.5,-20.0,-10.875,0.035953281947544644,-3.4508231026785716,-0.0023701695033482143,1.6175798688616072,34.673515,0.7557337154660906,0.03249829019818987,-0.5527382837023054
2.401124,34.11,-27.429375,58.5,-20.0,-11.0,-0.06614920479910714,-3.3930489676339284,-0.002727486746651786,1.616727556501116,34.669548,0.7401131391525269,0.04614971433367048,-0.5689211429868426
2.403682,34.11,203.70375,58.75,-20.0,-11.0,0.03642987932477679,-2.5804268973214284,-0.002469046456473214,1.6210741315569197,34.675426,0.7374891396931239,0.042382853371756415,-0.5665017138208662
2.398565,34.11,-8.45375,58.5,-20.125,-11.0,-0.025719778878348216,-1.6933768136160714,-0.002563999720982143,1.6204616001674108,34.671715,0.7385851458140782,0.04560342448098319,-0.5730228587559292
2.396007,34.11,-59.295,58.0,-21.0,-11.0,0.05499546595982143,-1.15008544921875,-0.0023905726841517857,1.6157030378069197,34.67313,0.7340708569117955,0.04156913893563407,-0.584425140448979
2.387053,34.11,-31.37625,58.125,-21.25,-11.125,-0.07586504255022321,-0.32658168247767855,-0.00265869140625,1.6179438999720983,34.6739,0.7472719975880214,0.03708114351545062,-0.5622000013078962
2.389611,34.09,0.057499999999999996,58.125,-21.125,-11.125,0.0073956298828125,2.5362636021205356,-0.0027601841517857144,1.6134469168526786,34.670338,0.7517554276330131,0.037448000907897946,-0.550739426612854
2.381936,34.09,-1.2762499999999999,58.125,-21.0,-10.75,0.028179146902901787,8.429042271205358,-0.0021135602678571427,1.6161063058035714,34.67338,0.7651279960359846,0.04332914352416992,-0.5209759994915554
2.379378,34.09,15.342500000000001,58.75,-21.25,-12.625,-0.025392020089285715,14.154453822544642,-0.0035708182198660714,1.6147373744419642,34.67176,0.7687245743615286,0.03850857325962612,-0.5226937130519322
2.364028,34.09,2.65,57.75,-21.375,-11.125,0.04416373116629464,15.831821986607142,-0.0017826625279017856,1.6150774274553572,34.675808,0.7736640003749302,0.037713138716561456,-0.5205497138840811
2.362748,34.09,-1.6993749999999999,58.0,-21.375,-11.125,-0.023697509765625,13.919337681361608,-0.0022119140625,1.6122480119977678,34.67465,0.7648491484778268,0.04287200382777623,-0.5210708563668387
2.364028,34.09,-25.4925,58.0,-21.25,-11.0,0.04520926339285714,10.626665387834821,-0.0030829729352678573,1.6138567243303572,34.67644,0.7744411427634103,0.03938628673553467,-0.5197657145772662
2.366586,34.09,-14.316875,58.0,-20.625,-12.5,-0.04198294503348214,7.707127162388393,-0.0027601841517857144,1.6117967878069197,34.678516,0.7692445734569004,0.04326742785317557,-0.5244457163129534
2.370423,34.09,63.541875,54.625,-12.375,-31.25,0.01674525669642857,5.483564104352679,-0.002653721400669643,1.6134817940848214,34.678097,0.7711497150148664,0.04225600242614746,-0.5206925739560808
2.388332,34.09,-0.586875,50.375,-13.5,-27.625,0.019969482421875,3.46539306640625,-0.00248291015625,1.611814226422991,34.67946,0.7643897186006818,0.043212571144104005,-0.5286857155391148
2.383215,34.09,-16.856875000000002,58.5,-21.375,-11.75,0.00024850027901785713,1.6246425083705358,-0.0023228236607142857,1.6127123151506697,34.679245,0.7714297144753592,0.036515424592154365,-0.5240639979498727
2.378098,34.09,-47.155625,58.0,-20.875,-11.125,0.009313790457589287,-0.36111014229910715,-0.0020235770089285714,1.6102796282087053,34.68471,0.7672228574752807,0.034145142010280065,-0.5286731416838509
2.389611,34.09,83.12187499999999,58.375,-20.0,-12.875,-0.03531816755022321,-2.0393502371651784,-0.002815638950892857,1.6075570242745536,34.685604,0.7697714301518032,0.02509028162275042,-0.5271222833224706
2.39089,34.09,168.143125,56.625,-14.75,-23.75,0.07091256277901786,-2.47918701171875,-0.002458060128348214,1.6107875279017858,34.686607,0.7649497154780797,0.03723542962755476,-0.5254491451808384
2.396007,34.09,-38.289375,57.75,-19.5,-14.125,-0.04865033830915179,-2.480686732700893,-0.002700282505580357,1.6097542898995536,34.692192,0.760763430595398,0.037251432963779994,-0.5403874271256583
2.398565,34.09,-170.93312500000002,58.125,-20.25,-12.375,0.02835205078125,-2.8182547433035716,-0.0019247000558035715,1.6079668317522322,34.689842,0.7662982879366194,0.03347428389957973,-0.5371074260984148
2.39089,34.09,-94.84312499999999,58.125,-20.125,-12.25,-0.019302978515625,-3.2832815987723216,-0.001980678013392857,1.6119559151785714,34.688194,0.7511702850886753,0.030772573607308524,-0.5520937129429409
2.383215,34.11,27.124375,58.375,-20.5,-12.25,0.011214948381696429,-3.597900390625,-0.0024946812220982143,1.6085859026227678,34.690727,0.7487851428985596,0.03650399889264788,-0.5515565732547215
2.378098,34.11,160.24625,58.0,-21.375,-11.75,0.003007899693080357,-3.8962838309151784,-0.0034562465122767857,1.6088779994419642,34.693317,0.7548982845033918,0.04074971403394426,-0.5517748550006322
2.356353,34.11,-31.616875,58.125,-21.875,-11.25,-0.05031293596540178,-4.073024204799107,-0.002128208705357143,1.610532488141741,34.691654,0.7498857150759016,0.03501485892704555,-0.5648537114688328
2.365307,34.11,-65.89875,58.0,-21.125,-11.5,-0.0174078369140625,-4.180925641741071,-0.0022098214285714286,1.605898175920759,34.69358,0.7523737158094134,0.04099085194723947,-0.5413314298221044
2.361469,34.09,-14.265000000000002,57.5,-21.5,-11.0,-0.023577706473214284,-2.159449986049107,-0.002791050502232143,1.601259504045759,34.700127,0.7703554323741368,0.050846859386989046,-0.5174068597384861
2.356353,34.09,-0.5262499999999999,58.375,-18.375,-14.75,0.04470075334821429,2.153721400669643,-0.002766200474330357,1.6038665771484375,34.702225,0.7691451406478882,0.04732571465628488,-0.5215657152448382
2.358911,34.09,19.190625,57.125,-14.5,-24.0,-0.014436819893973215,4.574454171316964,-0.0020855712890625,1.6045466831752233,34.70079,0.773392003604344,0.04339885234832764,-0.517764573097229
2.362748,34.09,-2.328125,55.875,-20.25,-14.75,0.009728916713169642,4.621599469866071,-0.0023837716238839287,1.6029532296316964,34.70091,0.7737314265114921,0.044374854905264716,-0.5118320039340428
2.357632,34.07,-4.420624999999999,57.5,-21.875,-12.125,0.048833182198660716,3.520908900669643,-0.0031358119419642857,1.6017630440848214,34.70305,0.7734868587766375,0.04241599696023124,-0.5201577145712716
2.349957,34.07,-22.857499999999998,58.125,-19.75,-13.5,-0.018866141183035715,1.9927716936383928,-0.0031365966796875,1.600125994001116,34.702232,0.7743302856172835,0.04182628563472203,-0.507713144166129
2.347398,34.07,136.20999999999998,58.25,-17.125,-15.0,0.017714407784598214,0.4661342075892857,-0.0026908656529017858,1.602750505719866,34.706673,0.7780434288297381,0.05052571024213518,-0.5103908583096095
2.361469,34.07,119.61500000000001,58.5,-18.5,-18.75,-0.03454912458147322,-0.92205810546875,-0.0020277622767857144,1.6004420689174108,34.70715,0.7773325736182076,0.048137146404811315,-0.5106560019084385
2.338444,34.09,-126.493125,57.125,-21.0,-12.5,0.02852260044642857,-1.8722882952008928,-0.0026267787388392855,1.5997750418526786,34.711452,0.775290288243975,0.047869716371808736,-0.508977142061506
2.342282,34.09,-16.49,58.0,-21.125,-12.875,-0.0007046944754464286,-2.4040963309151784,-0.0022255161830357145,1.598325456891741,34.709805,0.7750491462435041,0.04179543495178223,-0.5194411441258022
2.337165,34.09,-15.591250000000002,58.0,-21.0,-12.5,0.021428309849330356,-2.672755650111607,-0.0026254708426339288,1.5968736921037947,34.71529,0.772418281010219,0.044317711421421595,-0.5105211435045515
2.334606,34.09,-44.444374999999994,58.0,-21.0,-12.5,0.01980259486607143,-2.5980050223214284,-0.002312098911830357,1.5988333565848214,34.714516,0.769630856513977,0.048792001179286414,-0.5238834309577942
2.326931,34.07,10.466250000000002,57.875,-21.625,-12.0,-0.0321368408203125,-2.363368443080357,-0.002578125,1.5989336286272322,34.712517,0.768160001891,0.04153256893157959,-0.5207954280717032
2.328211,34.07,-36.454375,57.875,-22.0,-12.0,-0.0014988490513392857,-2.3248465401785716,-0.0017047119140625,1.5970284598214286,34.714493,0.7739177145276751,0.042169139725821356,-0.5256594276428223
2.324373,34.07,-20.00125,57.875,-22.0,-12.0,-0.050412074497767856,-2.5902622767857144,-0.002985927036830357,1.5979439871651786,34.714325,0.7689302894047328,0.045033141544886995,-0.5221394290242877
2.321815,34.07,-5.9725,57.75,-22.0,-12.0,0.0036189488002232144,-1.6537649972098214,-0.0024269321986607143,1.5971897670200892,34.71981,0.7645657110214233,0.05412000451769148,-0.5167999986239842
2.317977,34.09,9.888125,58.0,-22.0,-12.0,0.0450494384765625,1.2719639369419642,-0.002514822823660714,1.5953543526785714,34.719707,0.7818537146704537,0.051827431406293596,-0.5041634280341012
2.315419,34.09,6.58625,58.0,-22.0,-12.0,-0.015842023577008927,3.6723545619419644,-0.0026652308872767857,1.6276114327566964,34.72014,0.7790902859824045,0.047332568849836075,-0.5046879982948304
2.311581,34.09,-5.784374999999999,57.75,-22.0,-12.0,0.036914585658482144,3.904270717075893,-0.002359444754464286,1.6562456403459822,34.720917,0.7813760021754673,0.048690289088657926,-0.5023748588562011
2.307744,34.09,7.02625,57.25,-19.375,-18.5,-0.040331856863839284,2.911289760044643,-0.0024478585379464285,1.6606488909040178,34.724308,0.7841931452069963,0.0451908574785505,-0.4962022863115583
2.309023,34.07,-4.310625,57.125,-14.875,-26.875,0.034633876255580356,1.6466587611607142,-0.0024075753348214287,1.6595110212053572,34.72337,0.785853717667716,0.04385828495025635,-0.493541716166905
2.305186,34.07,-0.3306249999999997,58.75,-8.5,-18.75,-0.016225760323660715,0.30287388392857145,-0.002641165597098214,1.659609113420759,34.719482,0.7872274289812361,0.04022400106702532,-0.4944205709866115
2.307744,34.07,-22.916875,47.875,-11.375,-26.875,0.0254644775390625,-1.2794451032366072,-0.002879202706473214,1.6627393450055803,34.715992,0.7880205733435495,0.03781028475080218,-0.49497485603604996
2.301348,34.07,-70.99937499999999,61.5,-21.125,-13.625,0.04850699288504464,-3.2608729771205356,-0.0029095458984375,1.6627328055245536,34.724804,0.7700571434838431,0.031481147493634905,-0.522137142930712
2.303906,34.07,65.55,58.5,-21.25,-10.5,-0.05886579241071429,-4.372794015066964,-0.0023586600167410715,1.6624080113002233,34.722515,0.7843497106007167,0.01153599534715925,-0.5078994270733425
2.293673,34.07,251.104375,58.25,-17.625,-16.75,0.021638096400669642,-4.337271554129464,-0.002157767159598214,1.6647164481026786,34.722126,0.7753314317975726,0.019800001553126743,-0.5179771416527884
2.293673,34.07,-65.418125,56.25,-15.0,-25.125,-0.03427734375,-3.881923130580357,-0.0034120396205357144,1.6632559640066964,34.728603,0.7694491406849452,0.036215998785836354,-0.5221611431666783
2.284719,34.07,-110.946875,55.75,-17.375,-21.75,0.01279148646763393,-3.442714146205357,-0.0020047433035714286,1.662782941545759,34.730118,0.7735554279599871,0.03392685958317348,-0.5224377151897975
2.287277,34.09,-38.146874999999994,57.125,-20.625,-13.125,-0.004657679966517858,-3.044703892299107,-0.0024721854073660714,1.6623055594308036,34.727158,0.7601097161429269,0.03488228797912598,-0.5312674283981323
2.284719,34.09,-66.69,58.25,-20.125,-12.75,0.016825038364955358,-2.5597011021205356,-0.002843889508928571,1.659423828125,34.73199,0.7750811433792114,0.034614859308515274,-0.5231394287518093
2.28216,34.09,92.996875,58.25,-19.125,-12.75,0.028700735909598214,-2.198643275669643,-0.0028904506138392855,1.65924072265625,34.72903,0.7527782801219395,0.029787423951285225,-0.5463760018348693
2.289835,34.09,179.1175,56.875,-13.0,-22.375,-0.02944309779575893,-1.8319440569196428,-0.0026142229352678573,1.660154070172991,34.727974,0.7646034295218331,0.037325716018676756,-0.5369874286651611
2.296231,34.09,-74.59875,53.75,-11.75,-31.25,-0.007595738002232143,-1.5258701869419642,-0.0027439662388392856,1.6589835030691964,34.72812,0.7472731406348092,0.03750971589769636,-0.551004569530487
2.301348,34.09,-88.580625,57.5,-15.875,-21.5,-0.01671229771205357,-1.5938982282366072,-0.0028948974609375,1.6559186662946428,34.733498,0.7516948597771781,0.03611086027962821,-0.55427428654262
2.29879,34.09,-94.04124999999999,58.125,-19.75,-12.5,0.08306867327008928,-1.7812587193080358,-0.002742919921875,1.6543230329241072,34.733494,0.7546502821786063,0.025786284719194686,-0.5511554326329913
2.296231,34.09,5.433125,58.375,-20.125,-11.75,-0.05187796456473214,-2.063450404575893,-0.0024664306640625,1.6556963239397322,34.732067,0.7398102842058454,0.03963199956076486,-0.5719440007209777
2.289835,34.09,155.32125000000002,58.5,-20.125,-11.75,-0.0304376220703125,-2.3058994838169644,-0.002639857700892857,1.6545344761439733,34.73211,0.7467451429367066,0.03013256686074393,-0.5676845690182277
2.292394,34.09,75.57999999999998,58.125,-20.125,-11.75,0.03138270786830357,-1.34417724609375,-0.002293003627232143,1.655245099748884,34.73353,0.7488251481737409,0.04861485753740583,-0.5450239985329765
2.28344,34.09,-198.444375,58.375,-20.0,-11.875,-0.0210205078125,2.8358241489955356,-0.0024884033203125,1.6552233014787947,34.729687,0.7615394292558942,0.03926514148712158,-0.5376205713408334
2.28344,34.09,-67.019375,58.5,-20.0,-12.0,0.016077444893973215,6.318830217633929,-0.0025498744419642856,1.6536298479352678,34.730633,0.7652628578458514,0.039684568813868934,-0.5305622850145613
2.278323,34.09,6.533125,58.25,-20.0,-12.0,-0.021494227818080358,6.685407366071429,-0.0023565673828125,1.6541595458984375,34.729034,0.764604571887425,0.035160004752022876,-0.5265622837202889
2.280881,34.09,0.4556249999999999,58.5,-20.0,-12.125,0.014691336495535714,5.483101981026786,-0.0027306256975446427,1.6509268624441964,34.738773,0.7650628546306065,0.041735997200012205,-0.5355074286460877
2.279602,34.09,14.901875,58.25,-19.875,-12.0,0.015294538225446429,4.046726771763393,-0.0025469970703125,1.6505584716796875,34.732002,0.7622125707353864,0.0344914266041347,-0.534371429170881
2.278323,34.09,6.395,58.625,-19.75,-12.5,0.0019328090122767857,2.822963169642857,-0.002003696986607143,1.64874267578125,34.730675,0.761747430392674,0.03572685786655971,-0.5341680012430463
2.277044,34.09,-1.986875,58.875,-19.5,-12.0,0.021937604631696427,1.7220284598214286,-0.00299560546875,1.6502031598772322,34.735157,0.7534091411318098,0.038506290572030206,-0.5438788563864572
2.277044,34.09,11.1325,58.5,-19.25,-12.25,-0.04362513950892857,0.6371285574776786,-0.0023382568359375,1.6479579380580358,34.730167,0.7654639952523368,0.03326285634722029,-0.5400960029874529
2.270648,34.09,0.25812499999999994,58.75,-19.75,-12.125,0.039982386997767856,-0.2586669921875,-0.002742919921875,1.6452985491071428,34.734615,0.7511302832194737,0.029362286158970425,-0.5531954278264727
2.275764,34.09,23.771875,58.625,-19.625,-12.125,-0.05100925990513393,-0.8600987025669643,-0.0022995431082589285,1.6448887416294642,34.733498,0.7583028534480504,0.03459200314113072,-0.5441257146426609
2.274485,34.07,5.790625,58.5,-19.75,-11.875,0.05179242815290178,-1.27825927734375,-0.002874755859375,1.6435939243861608,34.733166,0.7441142865589687,0.03749028410230364,-0.56161828654153
2.275764,34.07,14.6225,58.125,-17.75,-18.5,-0.007325003487723214,-1.6651698521205358,-0.003005545479910714,1.6433541434151786,34.735275,0.7406468575341361,0.03805600234440395,-0.5691302864892143
2.271927,34.07,9.794375,55.5,-13.625,-40.75,-0.007060808454241072,-2.4111240931919644,-0.0024533517020089287,1.6433258056640625,34.73407,0.7388068560191563,0.03931771005902972,-0.5802468538284302
2.275764,34.07,4.2825,44.0,1.375,-31.375,0.00019199916294642858,-2.6640625,-0.0029814801897321427,1.640531267438616,34.73759,0.7539199992588588,0.034398856844220844,-0.5520034299577985
2.279602,34.07,23.81375,61.25,-1.0,-19.75,-0.01766575404575893,0.22319684709821427,-0.0028159005301339286,1.6408124651227678,34.741596,0.759091431753976,0.04103771959032331,-0.5354239978109088
2.279602,34.07,46.671875,51.625,1.25,-23.25,0.006793736049107143,5.283804757254464,-0.0025040980747767856,1.6402348109654017,34.73629,0.7608422871998378,0.05173486164637974,-0.5216788571221488
2.275764,34.07,156.23812499999997,62.5,-23.625,-7.25,0.0012087576729910715,9.118809291294642,-0.002748936244419643,1.64111328125,34.73798,0.7890365709577288,0.008537139211382185,-0.4956639998299735
2.280881,34.07,43.019999999999996,59.25,-21.25,-11.5,0.04359296526227679,10.09814453125,-0.0026992361886160714,1.6434871128627233,34.740223,0.7863577141080584,0.031303997720990864,-0.5002228580202375
2.26809,34.09,-37.180625,58.0,-22.875,-9.125,-0.015611310686383929,8.989876883370536,-0.0023785400390625,1.6398380824497767,34.738426,0.7884777137211391,0.021904002598353796,-0.4935748583929879
2.259135,34.09,-143.39999999999998,58.0,-22.625,-9.0,-0.03478663853236607,6.622602190290179,-0.0024946812220982143,1.6429094587053572,34.736607,0.7895634262902396,0.03546399968011039,-0.4926594305038452
2.254019,34.09,-166.39000000000001,58.125,-22.0,-9.125,0.03678091866629464,3.903965541294643,-0.003185250418526786,1.641754150390625,34.73918,0.7835211447307042,0.0522891446522304,-0.49472914150782993
2.25146,34.09,-70.20375,58.125,-22.0,-9.125,-0.02024571010044643,1.4687935965401786,-0.002288818359375,1.6408168247767858,34.741318,0.7849622808183943,0.04217142854418073,-0.4994617118154253
2.255298,34.09,46.279375,58.125,-21.5,-9.125,0.02980198451450893,-0.6104823521205357,-0.0020643833705357145,1.641996111188616,34.74637,0.7843302890232631,0.04266857283455985,-0.49664114236831663
2.256577,34.09,39.110625,58.375,-21.5,-8.875,-0.014878104073660714,-2.2299891880580356,-0.0018425641741071429,1.6383732386997767,34.74432,0.7834994288853236,0.037675426346915106,-0.5046994280815125
2.260414,34.09,7.2925,58.5,-21.625,-9.125,0.02638209751674107,-3.2724522181919644,-0.0026126534598214287,1.6402195521763392,34.74397,0.7836651400157384,0.027379429680960517,-0.5014159968921117
2.260414,34.09,9.5475,58.25,-21.5,-9.25,-0.0308258056640625,-3.859889439174107,-0.002832380022321429,1.6374642508370536,34.741493,0.7818571478979928,0.03689828532082694,-0.4982777166366577
2.26681,34.09,-11.861875000000001,58.625,-21.0,-9.5,0.03491402762276786,-4.099007742745536,-0.0022762625558035714,1.6364637102399553,34.743137,0.7839485767909459,0.03534057685307094,-0.5029428560393198
2.264252,34.09,3.1075,58.625,-20.375,-10.0,-0.021023123604910713,-4.406319754464286,-0.0029312569754464286,1.6371721540178572,34.744717,0.7801039981842041,0.03564228670937675,-0.5060822871753148
2.26681,34.09,1.6062500000000002,58.25,-21.0,-9.375,0.023046962193080358,-4.683506556919643,-0.0029901123046875,1.6329498291015625,34.74238,0.7795417172568185,0.029123431614467076,-0.5076377122742789
2.259135,34.09,11.389375000000001,58.5,-20.75,-9.5,-0.0014970179966517856,-4.752336774553571,-0.0027484130859375,1.6334599086216517,34.74118,0.7801348624910627,0.03381943021501813,-0.5078399978365217
2.264252,34.07,17.614375,58.375,-21.375,-9.75,0.015624912806919643,-4.351518903459821,-0.0026027134486607145,1.6319078717912947,34.743362,0.7702034282684326,0.031672000885009766,-0.522883426121303
2.256577,34.07,14.120625,58.375,-21.25,-9.5,-0.022930821010044643,-3.926914760044643,-0.0023440115792410714,1.63360595703125,34.741352,0.7790411445072719,0.03410400322505406,-0.5114720014163426
2.256577,34.07,-2.19625,58.5,-20.875,-9.625,0.012559465680803572,-3.5814121791294644,-0.0025111607142857145,1.6312822614397322,34.74553,0.767947427885873,0.03359999861036028,-0.5251040029525756
2.254019,34.07,-5.106249999999999,58.625,-21.0,-9.125,-0.021433279854910715,-3.281956263950893,-0.0021101597377232145,1.6332179478236608,34.743706,0.7657005739212036,0.034042284829275946,-0.5285817176955087
2.256577,34.05,2.9224999999999994,58.875,-21.0,-9.25,0.034774344308035714,-2.985866001674107,-0.0028860037667410715,1.6306806291852678,34.747395,0.7681919990267072,0.03425600324358259,-0.5327657158034188
2.260414,34.05,12.69875,58.5,-20.875,-9.0,-0.036441650390625,-2.84295654296875,-0.002657906668526786,1.631866455078125,34.74315,0.7657737180164882,0.032651427813938684,-0.5275999968392509
2.264252,34.05,-4.415625,58.875,-20.875,-9.0,0.03304739815848214,-2.5393589564732144,-0.0030026681082589287,1.6309400285993303,34.744526,0.7609451423372541,0.03353942802974156,-0.5358228574480329
2.270648,34.05,9.57375,58.375,-21.75,-8.75,-0.0183636474609375,-2.397007533482143,-0.0021441650390625,1.6286141531808036,34.74497,0.7589565699441092,0.034236572810581754,-0.5396857149260385
2.26681,34.07,-1.5831249999999994,58.5,-21.125,-9.0,-0.006096365792410715,-2.3679112025669644,-0.0031308419363839284,1.630552019391741,34.73887,0.7622000013078962,0.03357143197740827,-0.5509005764552525
2.264252,34.07,5.713749999999999,58.625,-21.0,-9.125,-0.07927498953683036,-2.0255039760044644,-0.002142857142857143,1.6299656459263392,34.749996,0.7565325689315796,0.04140685149601528,-0.5260902840750558
2.243785,34.07,-6.3149999999999995,58.25,-21.0,-9.0,0.07007864815848214,0.4136962890625,-0.0023073904854910713,1.6308702741350447,34.749454,0.7772834287370954,0.0372857107434954,-0.5218640000479562
2.254019,34.07,11.334375,58.625,-21.0,-9.125,-0.019853341238839285,3.7524326869419644,-0.0025279017857142857,1.6282958984375,34.746773,0.7753051444462368,0.029854858262198313,-0.5101394316128322
2.247623,34.05,-9.6475,58.75,-21.125,-9.375,0.04015162876674107,4.980233328683036,-0.00230712890625,1.629547119140625,34.75017,0.776451427595956,0.036516573769705636,-0.5125451455797468
2.247623,34.05,5.58125,58.875,-21.0,-9.0,-0.0266473388671875,4.344220842633929,-0.002519008091517857,1.6348223005022322,34.74797,0.7771074295043945,0.03015542779650007,-0.5138194305556161
2.243785,34.05,5.92,58.75,-21.0,-9.125,0.05234017508370536,3.057835170200893,-0.0027931431361607143,1.630373273577009,34.748142,0.7708148568017142,0.03301028251647949,-0.5214594285828726
2.241227,34.05,-0.7087500000000002,58.5,-21.0,-9.375,-0.04910470145089286,1.9619576590401786,-0.0022817557198660716,1.6278839111328125,34.749863,0.7744377183914185,0.0276137147630964,-0.5165554329327174
2.239948,34.09,0.339375,58.75,-20.75,-9.125,0.017398158482142857,0.9626028878348214,-0.0029137311662946427,1.6265127999441964,34.755005,0.7695405714852469,0.03417028835841587,-0.5249748580796378
2.245064,34.09,-6.66375,58.375,-20.875,-9.375,0.0038363211495535715,-0.26777866908482145,-0.0022987583705357142,1.625821794782366,34.749058,0.7702971431187221,0.030939432552882604,-0.5253782858167376
2.246343,34.09,2.5675,58.875,-20.875,-9.5,0.008273489815848214,-1.1531110491071428,-0.0019866943359375,1.6247297014508928,34.75247,0.763845716203962,0.030312002045767648,-0.5267119993482318
2.248902,34.09,-10.1,58.75,-21.0,-9.125,0.042521275111607144,-1.5995657784598214,-0.002413853236607143,1.6242566789899553,34.752945,0.7607337195532663,0.0327177095413208,-0.5426251408032009
2.246343,34.07,11.353125,58.75,-21.0,-9.375,-0.0470892333984375,-1.7150617327008928,-0.002479248046875,1.625028337751116,34.75675,0.7567897135870797,0.03402514662061419,-0.5463314315250941
2.25146,34.07,-5.05375,58.75,-21.0,-9.25,0.004625767299107143,-2.1327427455357144,-0.0025396728515625,1.6254141671316964,34.75814,0.7506045729773385,0.03421257427760533,-0.5554422845159258
2.264252,34.07,-1.1956250000000004,58.625,-20.875,-9.5,-0.04511012486049107,-2.9398629324776784,-0.0026171003069196427,1.626920427594866,34.748955,0.7506388568878174,0.03745828696659633,-0.5543474313191005
2.271927,34.07,-1.6193750000000002,59.125,-19.375,-12.125,0.0814654541015625,-3.136073521205357,-0.0033534458705357143,1.6258610316685267,34.74975,0.7489028596878051,0.037427429471697124,-0.5549245725359235
2.274485,34.07,3.37125,62.0,-10.875,-29.125,-0.060003923688616075,-2.780979701450893,-0.0017865862165178572,1.6252223423549108,34.759644,0.7439131423405239,0.036921145575387136,-0.5647828572137015
2.28216,34.07,1.498125,50.875,-1.25,-27.625,0.03643327985491072,-2.16339111328125,-0.003211146763392857,1.6256452287946428,34.75789,0.7421657126290457,0.0376308536529541,-0.5691988587379455
2.28216,34.07,-3.5324999999999998,43.625,-6.0,-23.875,-0.015499354771205356,-2.02313232421875,-0.002066737583705357,1.6245792933872767,34.755497,0.728448006766183,0.03489600249699184,-0.571703999383109
2.284719,34.07,0.24375000000000024,67.5,-21.5,-23.125,0.008918282645089285,-2.17462158203125,-0.0023272705078125,1.623960222516741,34.75864,0.7573919970648629,0.019455999306270056,-0.5612011453083583
2.278323,34.07,33.379999999999995,57.875,-19.625,-16.25,0.0087835693359375,-2.2854439871651784,-0.002821132114955357,1.624788556780134,34.756145,0.7475188616343907,0.0068160012790134976,-0.5659497121402196
2.262973,34.07,22.888125000000002,57.125,-20.25,-16.0,-0.0182574462890625,-1.9583042689732142,-0.0024619838169642858,1.6241237095424108,34.764324,0.7495028529848371,0.012317712306976319,-0.5667611428669521
2.248902,34.07,10.629375,57.5,-20.375,-16.0,0.0037196568080357143,-1.1529802594866072,-0.002238333565848214,1.6191275460379464,34.75656,0.7317851413999285,0.0215302882875715,-0.5769805697032383
2.246343,34.07,30.880000000000003,57.5,-20.125,-16.0,-0.06985107421875,-0.04319545200892857,-0.00273193359375,1.6210850306919642,34.76108,0.7437508569444928,0.026924571990966796,-0.562965715272086
2.234831,34.05,-48.11125,57.625,-20.375,-15.75,0.08428213936941964,0.47772216796875,-0.0027934047154017858,1.6191755022321428,34.76241,0.7296582801001412,0.029134857995169502,-0.5851188550676618
2.238668,34.05,-2.1825,63.875,-14.5,-23.0,-0.06163565499441964,-0.051121303013392856,-0.0021389334542410714,1.6177542550223214,34.764465,0.740685715675354,0.030627429825919015,-0.5792662838527135
2.230994,34.05,-17.448125,46.125,-7.125,-18.25,0.07918814522879464,-0.6040998186383929,-0.002918701171875,1.619171142578125,34.764572,0.7273714297158378,0.03156685624803816,-0.5912662846701485
2.246343,34.05,-26.205,58.0,-17.5,-21.25,-0.09042898995535714,-0.41204833984375,-0.002102835518973214,1.6161673409598214,34.772858,0.7483954307011196,0.027477714674813407,-0.5577839967182704
2.239948,34.05,0.6143750000000006,57.0,-21.125,-16.5,0.010841936383928571,1.8935634068080358,-0.0024447195870535713,1.6160736083984375,34.765293,0.7594239977427891,0.018294857910701207,-0.5276194279534476
2.238668,34.05,-18.514375,57.5,-21.125,-16.25,0.12950578962053572,7.070050920758929,-0.003093174525669643,1.6190926688058036,34.768715,0.7631828621455601,0.02189370972769601,-0.5491679978370666
2.229714,34.05,6.556875,57.125,-21.0,-16.0,-0.025543997628348213,10.248587472098214,-0.0025161307198660714,1.6163133893694197,34.766556,0.7504937137876239,0.011048001561846052,-0.5505702825954982
2.227156,34.05,26.6175,57.25,-20.625,-16.0,0.005239693777901786,10.398829868861608,-0.0022723388671875,1.6170392717633928,34.770245,0.7494239984239851,0.04173714297158378,-0.5588251437459674
2.225877,34.07,23.836875,57.25,-20.5,-16.0,-0.053236868722098214,8.62677001953125,-0.002987758091517857,1.6187068394252233,34.768913,0.7413577147892543,0.029528002738952636,-0.5697714260646275
2.222039,34.07,-22.689999999999998,57.375,-20.75,-16.0,0.04393197195870536,6.106096540178571,-0.0026709856305803573,1.6122676304408483,34.76918,0.7360079976490566,0.03265371595110212,-0.5737508593286786
2.219481,34.07,-21.933125,57.25,-20.75,-16.0,-0.0531390380859375,3.5111607142857144,-0.002335902622767857,1.61529541015625,34.770264,0.7400742816925049,0.031713148525783,-0.5695451412882123
2.216923,34.07,-12.188125,57.25,-21.125,-15.5,0.046848842075892856,1.2990461077008928,-0.002485787527901786,1.6152583530970983,34.770145,0.7399257114955358,0.030114288330078124,-0.5764182846886771
2.228435,34.05,-10.478125,57.0,-21.625,-15.0,-0.058749912806919644,-0.3511439732142857,-0.0015958949497767857,1.6176387241908483,34.768467,0.7331462846483503,0.02976571559906006,-0.5881245718683515
2.232273,34.05,-2.6756249999999997,57.125,-22.125,-15.0,-0.014580165318080356,-1.2467738560267858,-0.0030366734095982144,1.618288312639509,34.767796,0.7454697166170393,0.03220570768628802,-0.5629919988768441
2.242506,34.05,-15.296875,57.125,-22.25,-15.0,0.005607997349330357,-0.7982003348214286,-0.002573154994419643,1.6211351667131697,34.776512,0.7582239995683943,0.03396114349365234,-0.5468365710122245
2.245064,34.05,1.28875,57.0,-22.125,-15.0,-0.0038580322265625,2.9364536830357144,-0.0025857107979910714,1.6243656703404017,34.772312,0.7610571418489729,0.03680342946733747,-0.530270858151572
2.25146,34.03,-9.026875,57.0,-22.0,-14.875,0.072703857421875,8.255031040736608,-0.0026997593470982142,1.6264430454799108,34.768944,0.7788491487503052,0.032313143866402765,-0.5049645713397435
2.247623,34.03,18.401875,57.25,-20.625,-17.875,-0.027287423270089286,11.789559500558036,-0.0021956961495535714,1.627134050641741,34.77229,0.7827017150606428,0.030382863453456335,-0.4989371429170881
2.242506,34.03,8.7025,54.75,-16.25,-26.875,0.0333526611328125,11.556535993303571,-0.0019906180245535714,1.6278599330357142,34.77338,0.7871257128034319,0.03400800364358084,-0.49707428761890954
2.241227,34.03,12.39875,56.375,-19.0,-19.75,-0.021419939313616073,8.879507882254464,-0.0025485665457589284,1.6268419538225447,34.77315,0.7850354283196586,0.03509371416909354,-0.49714514425822665
2.229714,34.05,-15.988124999999998,57.0,-21.875,-13.125,0.028217337472098213,5.777657645089286,-0.002697928292410714,1.6248822893415178,34.775185,0.7822891446522304,0.03453028474535261,-0.49570171424320764
2.224597,34.05,-36.905625,57.75,-21.375,-13.125,-0.0035475376674107143,2.502110072544643,-0.002696620396205357,1.6236201695033483,34.76635,0.7906902878625053,0.03273828233991351,-0.4972114307539804
2.22076,34.05,18.78125,57.25,-21.375,-13.0,-0.0028928048270089285,-1.0414254324776786,-0.002516392299107143,1.6234392438616072,34.768967,0.7842434297289167,0.03013486112867083,-0.49918285710471016
2.227156,34.05,145.40375,56.0,-19.25,-21.75,0.021010829380580357,-3.7246616908482144,-0.0025836181640625,1.6222381591796875,34.774574,0.7771005664552961,0.03599771022796631,-0.5093405720165798
2.223318,34.07,-51.349999999999994,56.375,-19.25,-18.125,-0.030387137276785714,-5.145725795200893,-0.0018661063058035715,1.6214120047433036,34.770924,0.7757977151870727,0.03104113578796387,-0.5119577121734619
2.223318,34.07,-94.018125,57.25,-21.75,-11.625,0.0344732666015625,-5.965096609933036,-0.0031494140625,1.6194675990513392,34.77269,0.7770834336962019,0.033421715327671596,-0.5143714271272932
2.223318,34.07,-46.974999999999994,58.125,-21.25,-12.0,-0.008696725027901786,-6.575491768973214,-0.0029948207310267856,1.6180528913225447,34.78371,0.772486857686724,0.028137147086007255,-0.509138285432543
2.22076,34.07,-79.6925,58.0,-21.25,-11.75,0.0167486572265625,-7.352443150111607,-0.0029485212053571427,1.6171526227678572,34.77804,0.7748457166126796,0.03942400319235666,-0.520291428225381
2.216923,34.05,209.654375,58.0,-21.125,-11.625,-0.03695486886160714,-7.881208147321429,-0.0025726318359375,1.6170785086495536,34.776344,0.7736994280133929,0.02937828608921596,-0.5224742848532541
2.211806,34.05,25.93,58.0,-21.125,-11.875,-0.007915126255580357,-7.309308733258929,-0.0021902029854910716,1.6129608154296875,34.777416,0.7636262839181083,0.034282287188938686,-0.5394457139287676
2.206689,34.05,-52.765625,58.125,-21.125,-11.875,-0.010113961356026786,-6.458653041294643,-0.0019019426618303572,1.6136627197265625,34.77357,0.7606319965635027,0.032427432877676826,-0.531846856389727
2.202852,34.05,-38.193749999999994,58.0,-21.0,-12.0,-0.003732735770089286,-5.689296177455357,-0.0026136997767857145,1.6114414760044642,34.7755,0.7621120030539377,0.03467885766710554,-0.5429542868477958
2.195177,34.05,4.933125,58.0,-21.0,-12.0,0.0028012520926339285,-5.06854248046875,-0.0027183314732142855,1.6116594587053572,34.775253,0.7572948578425817,0.03349713938576834,-0.54524685553142
2.19006,34.05,-14.48375,58.0,-21.0,-12.0,0.008990740094866072,-4.813755580357143,-0.0029213169642857144,1.607393537248884,34.775303,0.7511074304580688,0.03491771289280483,-0.5503577130181448
2.187501,34.05,10.113125,58.0,-21.0,-11.875,0.013694196428571429,-4.894818987165179,-0.0023301478794642855,1.6076529366629464,34.773743,0.7471885776519775,0.03783999919891357,-0.5587908577919006
2.184943,34.05,-11.953125,58.25,-21.125,-11.75,-0.024383632114955357,-4.808244977678571,-0.00275390625,1.6064278738839286,34.780212,0.7428982877731323,0.038966855321611676,-0.5617942813464574
2.178547,34.05,3.6325000000000003,58.0,-21.0,-12.0,0.035244140625,-4.567051478794643,-0.002512991768973214,1.6034153529575892,34.779175,0.7444502898624965,0.03807885646820068,-0.5636434299605233
2.179826,34.05,-13.458125,58.125,-21.125,-12.0,-0.0089776611328125,-4.546709333147321,-0.0030772181919642857,1.6037052699497767,34.772125,0.7452880014692034,0.03797143050602504,-0.5626948608670916
2.17343,34.05,6.264374999999999,58.0,-21.0,-11.375,0.009492449079241072,-4.602382114955357,-0.002735072544642857,1.6044049944196428,34.773144,0.7473668622970581,0.03934627669198172,-0.5615771443503244
2.17343,34.05,9.263124999999999,57.875,-22.375,-11.0,-0.0013609967912946428,-4.198678152901786,-0.0026003592354910715,1.6033172607421875,34.774055,0.7467931413650513,0.03637714317866734,-0.5574799987248013
2.164476,34.05,-1.9056249999999997,58.0,-22.125,-11.0,-0.020785871233258927,-3.13037109375,-0.0026314871651785714,1.6028376988002233,34.780087,0.7528217131750924,0.037696001870291575,-0.567279998574938
2.168314,34.05,9.079375,57.0,-24.0,-11.0,-0.03631844656808036,-1.4472220284598214,-0.0027531215122767855,1.600221906389509,34.781013,0.7555805724007743,0.04084114142826625,-0.5287965713228499
2.15808,34.05,0.8168749999999996,57.5,-23.625,-9.625,0.024722900390625,2.6716221400669644,-0.0030120849609375,1.6004486083984375,34.779995,0.7698011445999146,0.04594628470284598,-0.5202091428211757
2.15936,34.05,49.763125,56.875,-23.5,-10.875,0.008760288783482144,7.660417829241071,-0.0024850027901785715,1.6003461565290178,34.777756,0.7803920003346034,0.03826171398162842,-0.5142239952087402
2.152964,34.05,25.310000000000002,57.125,-23.25,-12.125,0.04124058314732143,9.492893763950892,-0.002837611607142857,1.5976322719029017,34.777504,0.7693897192818778,0.05594514165605818,-0.5137291421209063
2.15936,34.05,15.682500000000001,58.25,-21.75,-13.0,-0.05451886858258929,8.642482212611608,-0.0026356724330357144,1.596832275390625,34.78136,0.7806811455317906,0.05543314525059291,-0.5014160006386893
2.149126,34.05,-25.210625,57.875,-22.125,-11.625,0.0735845947265625,6.761308942522321,-0.0030047607421875,1.595060076032366,34.77745,0.7657302870069231,0.04149828638349261,-0.5241714297022139
2.155522,34.05,24.603749999999998,58.0,-21.75,-10.25,0.017578648158482143,4.40960693359375,-0.002575770786830357,1.5965314592633928,34.78027,0.772913146018982,0.05150857176099505,-0.5188262806619917
2.14273,34.03,-80.201875,58.25,-21.625,-11.0,-0.029246128627232144,2.295261928013393,-0.0021860177176339286,1.5959276471819197,34.778114,0.7698434312003,0.03433942386082241,-0.5298377129009791
2.150405,34.03,9.5025,58.25,-21.125,-10.25,-0.029131033761160715,1.4237409319196428,-0.0026027134486607145,1.5965314592633928,34.78385,0.7410194294793265,0.04524914605276925,-0.558218286037445
2.149126,34.03,14.935,58.125,-21.125,-10.5,0.05646161760602678,0.5847255161830357,-0.0027774483816964284,1.5973074776785714,34.785133,0.7583462851388114,0.04937257630484445,-0.5371805705342974
2.149126,34.03,17.640625,58.0,-21.375,-10.25,-0.06757219587053571,-0.30751255580357145,-0.002114345005580357,1.594820295061384,34.78893,0.7607874291283744,0.030072003773280554,-0.5434377155985151
2.151685,34.03,-41.624375,58.375,-21.125,-10.75,0.03222996303013393,-0.8455810546875,-0.0028969900948660715,1.594179425920759,34.783535,0.750161145074027,0.047221709660121375,-0.5512217119761875
2.151685,34.03,-19.293125,57.5,-21.625,-10.5,-0.020770699637276787,-1.4567696707589286,-0.0022998046875,1.5935625348772322,34.782066,0.755548573902675,0.03821599755968366,-0.5468685705321176
2.152964,34.03,16.80625,57.5,-18.75,-20.0,0.03369454520089286,-2.0961216517857144,-0.0023882184709821427,1.595155988420759,34.784084,0.7563097136361259,0.042525712421962195,-0.5454582854679653
2.149126,34.03,-1.7681249999999997,58.875,-19.25,-18.625,-0.015995570591517856,-3.0301426478794644,-0.0026136997767857145,1.5932072230747767,34.788647,0.7554102877208165,0.03687314169747489,-0.5512137113298688
2.149126,34.03,9.824375,57.75,-20.875,-12.25,0.007608555385044643,-4.247314453125,-0.002688511439732143,1.5927516392299108,34.783646,0.7485839979989188,0.03899200098855155,-0.5504537156649998
2.150405,34.03,-17.818125000000002,58.5,-20.5,-12.0,0.028622262137276786,-4.440159388950893,-0.0024831717354910714,1.5893358503069197,34.78803,0.7407291391917638,0.046675432068961006,-0.565457147870745
2.140172,34.03,-57.50875,58.125,-21.0,-12.0,0.011306239536830357,-4.088169642857143,-0.0032171630859375,1.5895647321428572,34.787056,0.7438194261278425,0.0391142886025565,-0.5648457142284938
2.147847,34.03,200.536875,58.5,-20.875,-11.625,-0.027393362862723213,-3.639186314174107,-0.0035893903459821427,1.5899178641183036,34.78221,0.732499429838998,0.04395542553492955,-0.580964572089059
2.145289,34.05,58.06375,58.25,-20.125,-11.625,-0.015413556780133928,-3.4649745396205356,-0.0030120849609375,1.5871625627790178,34.78641,0.7412502895082747,0.03902171066829137,-0.5680171425001962
2.140172,34.05,-150.576875,58.25,-20.875,-11.375,0.007885567801339286,-3.400913783482143,-0.0023654610770089284,1.5860835484095983,34.7846,0.739721142905099,0.029036570276532853,-0.5755782869883946
2.137614,34.05,-35.155625,58.375,-20.875,-11.125,-0.03309055873325893,-3.0438232421875,-0.0024863106863839287,1.584017072405134,34.787125,0.7343405737195696,0.03466286318642753,-0.5738982851164681
2.135055,34.05,-21.174375,58.375,-20.625,-11.0,0.04339625767299107,-2.6158272879464284,-0.002866123744419643,1.5847058977399553,34.786045,0.7326319987433297,0.04201485770089286,-0.5825028610229492
2.132497,34.05,-1.434375,58.5,-21.125,-10.375,-0.04200413295200893,-1.9034336635044642,-0.0022276088169642856,1.5823778424944197,34.785225,0.7354514305932182,0.03801370961325509,-0.5737942831856864
2.133776,34.05,1.4987500000000002,58.75,-20.125,-9.0,0.0413397216796875,-0.9514857700892857,-0.002363368443080357,1.5853751046316964,34.79035,0.731321142741612,0.037137139865330286,-0.5814468567711967
2.137614,34.05,2.2406249999999996,58.375,-21.875,-9.75,-0.03896719796316964,-0.3693324497767857,-0.0018993268694196428,1.5831516810825892,34.78745,0.7344754280362811,0.045392000334603444,-0.5773988553455898
2.146568,34.05,3.7406249999999996,58.375,-21.0,-10.0,0.05375296456473214,-0.3233555385044643,-0.002318899972098214,1.58319091796875,34.78929,0.7346159969057355,0.03496228967394147,-0.579191996710641
2.15936,34.03,-2.25,58.25,-21.125,-10.125,-0.048587559291294644,-0.24386160714285715,-0.0041094098772321425,1.5840236118861608,34.79366,0.7333760002681188,0.04500114168439592,-0.5813965742928641
2.169593,34.03,18.185624999999998,58.25,-21.0,-10.125,0.056984776088169646,-0.18138776506696427,-0.002596958705357143,1.585813249860491,34.790997,0.7214994314738682,0.05224457195826939,-0.5837988598006112
2.17471,34.03,23.445,58.5,-21.0,-9.875,-0.03791878836495536,-0.5402396065848214,-0.003535243443080357,1.581392560686384,34.79391,0.7473371437617711,0.044183998789106095,-0.566301714692797
2.17471,34.03,-6.536875,58.375,-21.0,-10.0,0.04040274483816964,-0.9108014787946429,-0.0026882498604910714,1.583193097795759,34.79363,0.7326148618970598,0.04658171245029995,-0.5724685713223049
2.178547,34.03,-5.406875,58.125,-21.75,-9.75,-0.0271966552734375,-1.0156598772321428,-0.0027162388392857144,1.5823277064732142,34.79985,0.7312445749555315,0.05017256736755371,-0.5869382858276367
2.172151,34.03,-16.005,58.125,-21.75,-10.0,0.0037944684709821427,0.09663609095982142,-0.0025357491629464284,1.582277570452009,34.796047,0.7429291439056397,0.0403268575668335,-0.5645485728127616
2.167035,34.03,-0.9787500000000002,58.25,-21.0,-10.0,0.0016754150390625,4.491019112723214,-0.002114345005580357,1.5830623081752233,34.798416,0.7473439993177141,0.03947314398629325,-0.5523954285894122
2.15808,34.03,20.25375,58.25,-21.375,-10.0,-0.009480416434151786,10.66015625,-0.002637241908482143,1.581390380859375,34.795788,0.7575108555385045,0.048125716618129186,-0.5422171432631356
2.155522,34.0,49.635625000000005,58.375,-21.25,-10.0,0.006908046177455357,14.48223876953125,-0.0023094831194196428,1.5827593122209822,34.795258,0.7554971395220076,0.04206742695399693,-0.5438560002190727
2.146568,34.0,29.803125,58.125,-21.0,-10.0,-0.023316127232142856,14.345807756696429,-0.0031868198939732145,1.5815538678850447,34.79321,0.7509702907289777,0.04293714250837054,-0.5507908569063459
2.146568,34.0,-43.520625,58.125,-21.5,-10.0,0.02714747837611607,11.971976143973214,-0.002895420619419643,1.5828334263392858,34.796204,0.7518091351645333,0.04354171003614153,-0.5549405721255711
2.138893,34.0,-29.06125,58.125,-21.5,-10.25,-0.01266200474330357,8.839826311383929,-0.0023092215401785713,1.5810961042131697,34.796787,0.7488994298662458,0.04122171606336321,-0.5540320008141654
2.140172,34.0,-13.44,58.375,-21.0,-10.125,0.027343662806919643,5.925772530691964,-0.0023929268973214286,1.580411638532366,34.80226,0.7521862847464426,0.04329142570495605,-0.5537862845829555
2.136334,34.0,-8.77375,58.25,-21.0,-10.0,0.002413853236607143,3.5186767578125,-0.0026511056082589284,1.5801282610212053,34.801044,0.7454342862537929,0.040945143699646,-0.5572582837513514
2.137614,34.0,8.375,58.125,-21.125,-10.0,-0.003511962890625,1.6617431640625,-0.002612130301339286,1.579831804547991,34.799164,0.7486228568213327,0.04316228662218367,-0.5554685715266636
2.138893,34.0,-1.711875,58.125,-21.0,-10.0,-0.003022548130580357,0.16180419921875,-0.0027227783203125,1.5790623256138392,34.798138,0.7485165684563773,0.04200800010136196,-0.5578617133413042
2.14273,34.0,-2.4712499999999995,58.375,-21.125,-10.0,0.003677280970982143,-1.0337960379464286,-0.0019341169084821429,1.5781010219029017,34.797688,0.7469028568267823,0.04178514003753662,-0.5566537121364049
2.145289,34.0,-16.740625,58.375,-21.125,-10.0,-0.017582571847098213,-2.1404854910714284,-0.002714669363839286,1.5765315464564733,34.799126,0.7448491443906512,0.04219885008675712,-0.5638571436064584
2.145289,34.0,2.1206250000000004,58.25,-21.375,-10.25,0.006997244698660714,-3.123011997767857,-0.0030853271484375,1.5765315464564733,34.798588,0.7448742846080235,0.042254854610988074,-0.5615485692024231
2.136334,34.0,-10.0425,58.375,-21.0,-10.0,-0.012290562220982144,-3.8261195591517856,-0.0016534423828125,1.5751408168247767,34.800476,0.7402914319719587,0.04290971755981445,-0.5702365715163095
2.138893,34.03,10.588125000000002,58.5,-21.0,-10.125,0.012062465122767856,-4.111825125558036,-0.0023055594308035716,1.5728977748325892,34.798374,0.741260565349034,0.04296799795968192,-0.5669074283327376
2.137614,34.03,-3.3487500000000003,58.375,-21.0,-10.0,-0.018171909877232145,-4.040553501674107,-0.003386928013392857,1.5738961356026786,34.80246,0.7336068596158709,0.04378856931413923,-0.5767748539788382
2.132497,34.03,11.126875,58.125,-21.125,-10.125,0.019709211077008928,-4.053963797433036,-0.0013643973214285715,1.5725272042410714,34.798717,0.7341462857382638,0.045782852172851565,-0.5767257135254996
2.129939,34.03,-11.2925,58.25,-21.125,-10.625,-0.023762381417410713,-4.129281180245536,-0.003683035714285714,1.5740116664341517,34.809086,0.733271997996739,0.04307314395904541,-0.5766868591308594
2.124822,34.03,6.706250000000001,58.25,-20.625,-10.25,0.07107526506696428,-3.955592564174107,-0.0023238699776785715,1.5734449114118303,34.80514,0.7292582811628069,0.04449828352246966,-0.5814834295000348
2.126101,34.03,-5.81625,58.625,-21.125,-10.5,-0.031240670340401785,-3.82586669921875,-0.0034434291294642857,1.5723680768694197,34.807484,0.7335817159925189,0.04286056995391846,-0.5819577159200395
2.122264,34.03,10.484375,58.5,-20.875,-10.0,0.02709987095424107,-3.5484619140625,-0.002487095424107143,1.5709184919084822,34.802322,0.7361965697152274,0.03540342807769775,-0.5778685716220311
2.120984,34.03,28.96875,58.5,-20.75,-10.375,-0.008644670758928571,-3.1191493443080356,-0.0024750627790178573,1.5711190359933036,34.80239,0.7339028569630214,0.042419425419398714,-0.5738891431263515
2.114588,34.0,-13.406875,58.375,-20.875,-10.0,-0.012555018833705358,-2.7869175502232144,-0.003335920061383929,1.5717969621930803,34.80677,0.728444573538644,0.03799085685185024,-0.5873325722558158
2.113309,34.0,-5.63875,58.375,-21.0,-10.125,0.0194439697265625,-2.6237967354910716,-0.002617361886160714,1.5719735281808036,34.808567,0.7260754258292061,0.04019656998770577,-0.5857017149244036
2.110751,34.0,-21.841875,58.25,-21.125,-10.0,-0.024885341099330358,-2.40484619140625,-0.0019165910993303571,1.569765363420759,34.81116,0.7327017177854266,0.040730281557355606,-0.5838628547532217
2.110751,34.0,12.176874999999999,58.875,-21.625,-10.125,0.0029270717075892856,-2.0491943359375,-0.0017779541015625,1.570223127092634,34.807476,0.7214297158377511,0.042035426412309916,-0.5971794240815299
2.119705,34.03,7.081875,61.375,-17.25,-3.75,-0.028400704520089286,-1.4812186104910714,-0.003172433035714286,1.5710492815290178,34.805016,0.7368240002223424,0.04068685872214181,-0.578756571156638
2.14273,34.03,21.911250000000003,58.0,-18.5,-4.125,-0.006034894670758928,1.1087472098214286,-0.0029574148995535716,1.5732661655970983,34.806923,0.7453668553488595,0.044036571638924736,-0.5463005706242152
2.151685,34.03,50.110625,59.25,-21.375,-8.375,0.0068055071149553574,6.481584821428571,-0.0023455810546875,1.5726885114397322,34.808933,0.7652468538284302,0.0404411438533238,-0.5381005719729832
2.160639,34.03,57.154375,59.125,-20.875,-7.375,0.035428030831473216,10.274989536830358,-0.0025396728515625,1.574462890625,34.81176,0.7564285734721593,0.046763429641723635,-0.5357611427988325
2.169593,34.03,22.244374999999998,59.25,-20.125,-5.5,0.028051496233258928,10.183375767299108,-0.0021059744698660714,1.5738438197544642,34.81296,0.7689085742405483,0.03994857243129185,-0.5349542842592512
2.183664,34.03,-78.85125,58.5,-20.875,-7.875,-0.01642796107700893,8.267255510602679,-0.0016866629464285714,1.5747811453683036,34.813076,0.7559097167423793,0.05115885189601353,-0.5378731410843985
2.179826,34.03,-120.98687500000001,58.75,-21.375,-7.875,0.018829781668526786,5.893380301339286,-0.003124302455357143,1.5747898646763392,34.80993,0.759986287525722,0.03196343081338065,-0.5402937146595547
2.183664,34.03,-18.618125,59.0,-20.875,-8.0,-0.021301705496651786,3.4974539620535716,-0.002083217075892857,1.5767756870814733,34.814476,0.757020572253636,0.040001143046787806,-0.5402491440091814
2.181106,33.99,5.105,58.875,-21.0,-7.875,0.024402204241071427,1.5055106026785714,-0.0025493512834821428,1.5784563337053572,34.813896,0.7513279962539673,0.03928113869258336,-0.5503177148955208
2.187501,33.99,37.0375,59.0,-21.0,-7.75,-0.04074489048549107,-0.07608468191964286,-0.0026788330078125,1.57830810546875,34.815727,0.753770283971514,0.040753139087132045,-0.5545451443535941
