W_EDA,W_TEMP,W_BVP,W_ACCx,W_ACCy,W_ACCz,C_ECG,C_RESP,C_EMG,C_EDA,C_TEMP,C_ACCx,C_ACCy,C_ACCz
0.377356,33.25,-165.88875000000002,23.375,0.0,58.5,-0.021179286411830357,0.7829328264508929,-0.001988525390625,0.735870361328125,33.87698,0.8875257110595703,0.07974628516605922,-0.19513599940708706
0.373519,33.25,56.06875,27.375,3.0,55.75,0.0668023681640625,1.8436017717633928,-0.0022336251395089286,0.7349962506975446,33.88156,0.8878697170530047,0.08553371770041329,-0.192494854586465
0.374798,33.23,72.151875,35.625,5.625,51.625,-0.03961905343191964,3.171630859375,-0.002293003627232143,0.7349068777901786,33.879402,0.8851417125974382,0.0844857120513916,-0.1905485711778913
0.373519,33.23,-15.82875,42.25,3.0,46.625,0.024748011997767858,4.485578264508929,-0.002398158482142857,0.7344403948102679,33.877014,0.8864342893872942,0.08359771183558873,-0.1967337155342102
0.376077,33.23,8.181875,57.875,4.0,18.75,-0.030228358677455356,4.953125,-0.0019048200334821428,0.734893798828125,33.878983,0.8874765757152012,0.08556228297097343,-0.19198285681860788
0.37224,33.23,34.98,60.75,4.375,-14.125,0.004105224609375,4.237357003348214,-0.0020120675223214285,0.7356937953404018,33.875088,0.8865371411187308,0.08687314442225864,-0.19408114160810197
0.364565,33.25,74.185625,69.875,1.25,-20.5,0.06234087262834821,2.7900216238839284,-0.0018072509765625,0.7356305803571429,33.878464,0.8859839991160802,0.08205029010772705,-0.19966171264648438
0.367123,33.25,-0.052499999999999325,39.875,13.125,31.0,-0.09842075892857143,1.1013096400669642,-0.002125331333705357,0.73333740234375,33.879253,0.8845954309191023,0.08086628368922642,-0.20572114195142474
0.404219,33.25,51.065,22.75,-0.375,56.875,0.01504420689174107,-0.4724644252232143,-0.0019022042410714287,0.7365700857979911,33.879383,0.8823862913676671,0.08340571471623012,-0.21495428494044713
0.381194,33.25,-78.965,26.625,3.0,56.125,0.054912022181919644,-1.7498953683035714,-0.0024345179966517856,0.7348480224609375,33.879166,0.885395427431379,0.08666628565107073,-0.21187885795320782
0.381194,33.25,13.061875,28.5,-0.25,57.5,-0.051886073521205354,-2.5735299246651784,-0.001518467494419643,0.7337886265345982,33.876648,0.8838582944869995,0.07961142608097621,-0.20828228337424143
0.377356,33.25,-23.5775,27.0,2.75,58.0,0.06985185895647321,-2.716945103236607,-0.002556675502232143,0.7374049595424107,33.88356,0.8851485736029489,0.08197828905923026,-0.2001691436767578
0.376077,33.25,-98.703125,22.625,1.125,58.125,-0.05805515834263393,-2.1126011439732144,-0.002093418666294643,0.732635498046875,33.875854,0.8869931445802961,0.07941828659602573,-0.20290171657289777
0.589699,33.25,106.450625,23.5,0.25,58.375,0.013053327287946429,-1.2607247488839286,-0.003119594029017857,0.7365657261439732,33.87769,0.8863508592333113,0.08137714522225516,-0.19948685850415912
0.461782,33.27,108.423125,25.875,0.25,57.0,0.0029179164341517857,-0.43929617745535715,-0.0021216692243303573,0.735137939453125,33.88289,0.8860240050724575,0.07987427847726004,-0.19967543159212384
0.428523,33.27,-37.6525,26.125,0.0,57.0,-0.030833653041294644,0.08060128348214286,-0.0031093924386160713,0.7359749930245536,33.88018,0.8861017193113054,0.08133371216910226,-0.2012114303452628
0.413173,33.27,70.595625,26.625,0.125,57.0,0.05442103794642857,0.4410313197544643,-0.0023921421595982143,0.7365461077008929,33.877396,0.8856057146617344,0.08162399632590157,-0.20590171541486468
0.410615,33.27,5.810625000000002,27.0,0.125,56.875,-0.013165283203125,0.7442539760044643,-0.001953212193080357,0.7353232247488839,33.879402,0.8857177128110613,0.08174742698669434,-0.20497828619820732
0.404219,33.29,-94.638125,27.0,0.0,57.0,-0.055519932338169646,1.1675763811383928,-0.0021316092354910715,0.7353384835379464,33.883007,0.8855291421072824,0.08476800305502755,-0.20217828444072178
0.401661,33.29,-49.421875,27.0,-0.25,57.0,0.06522269112723214,2.2248709542410716,-0.0019639369419642855,0.7364959716796875,33.87994,0.8848457125255039,0.08611313956124442,-0.20223657335553852
0.399102,33.29,-35.345,27.0,-1.0,56.75,0.014265223911830356,3.7679268973214284,-0.002044764927455357,0.7352251325334821,33.881737,0.8846937152317592,0.08835885320390974,-0.20012914521353586
0.395265,33.29,-2.7350000000000003,27.0,-1.0,56.625,-0.02971461704799107,5.556344168526786,-0.0029744175502232142,0.7361363002232143,33.883236,0.8844777134486607,0.09305142879486084,-0.20289485658918108
0.392707,33.29,-16.514999999999997,27.25,-0.875,56.625,0.05531171526227679,7.20196533203125,-0.002288818359375,0.7358027866908482,33.88371,0.8834160041809082,0.09126171452658517,-0.20739428622382028
0.385032,33.29,-22.974375,27.0,-1.0,56.5,-0.004199654715401786,8.192513602120536,-0.0020560128348214284,0.7374332972935268,33.885685,0.8809565721239363,0.09083770888192313,-0.20844228710447038
0.386311,33.29,4.935625,27.25,-1.0,56.75,-0.05073460170200893,8.203229631696429,-0.002408360072544643,0.7343205043247768,33.884014,0.8819508593423026,0.09225142955780029,-0.20912228686468942
0.385032,33.29,4.786875,28.875,-0.5,61.25,0.040972202845982145,6.749415806361607,-0.002307913643973214,0.7390158517020089,33.886986,0.8826834290368216,0.09000570978437152,-0.20967886073248726
0.385032,33.27,-8.2725,16.25,5.375,54.875,-0.004615827287946428,3.9866768973214284,-0.0020651681082589288,0.7373395647321429,33.889236,0.8837908601760864,0.090549715587071,-0.20218285833086286
0.386311,33.27,17.567500000000003,18.5,1.625,61.25,-0.053868582589285716,0.9497767857142857,-0.0015788922991071428,0.7368556431361607,33.885235,0.8851337146759033,0.09079200335911342,-0.20335428408214024
0.378636,33.27,6.2725,20.875,2.625,57.75,0.06273768833705357,-1.6619611467633928,-0.0028360421316964285,0.7373025076729911,33.887478,0.8831920044762748,0.09480571269989013,-0.206838857786996
0.381194,33.27,-25.668750000000003,38.0,5.375,49.25,-0.012160818917410714,-3.69671630859375,-0.0028036063058035714,0.736297607421875,33.887997,0.884132569858006,0.090172575541905,-0.20520685468401229
0.377356,33.27,-11.906249999999998,57.0,5.25,25.75,-0.006695120675223214,-5.1873779296875,-0.0020547049386160712,0.7393559047154018,33.888897,0.8836034291131156,0.08997485569545201,-0.2013039997645787
0.373519,33.27,62.2875,62.375,6.5,-3.625,0.050725184849330356,-6.422537667410714,-0.0020382254464285715,0.7340480259486607,33.890713,0.8847405733380999,0.09060914312090193,-0.2006891427721296
0.368402,33.27,-21.231875000000002,63.0,4.375,9.125,-0.016912405831473215,-7.600455147879464,-0.0022409493582589285,0.735107421875,33.88978,0.8855931493214199,0.0880480010168893,-0.20005714314324516
0.367123,33.27,10.035625,58.0,4.375,35.75,-0.05597743443080357,-8.219935825892858,-0.0023686000279017857,0.7332175118582589,33.886066,0.8859051465988159,0.08843085902077812,-0.19786628757204328
0.373519,33.25,69.49562500000002,36.25,11.0,45.5,0.014315447126116071,-7.944893973214286,-0.0024334716796875,0.7331019810267857,33.889343,0.8859211431230818,0.0869599962234497,-0.1973737154688154
0.395265,33.25,-110.62687500000001,25.375,2.875,54.75,0.0067437744140625,-7.295933314732143,-0.0024154227120535715,0.7372981480189732,33.89114,0.8855108547210694,0.08477371420179095,-0.1971977118083409
0.373519,33.25,121.37375,24.25,4.75,57.0,-0.028792550223214287,-6.411054338727679,-0.002084786551339286,0.732177734375,33.89465,0.8883680009841919,0.09498857361929758,-0.1933542857851301
0.376077,33.25,36.348125,27.625,2.875,59.5,0.047727225167410715,-4.940830775669643,-0.0021295166015625,0.7380501883370536,33.89082,0.8873782900401525,0.09010856900896345,-0.19017142806734358
0.378636,33.27,-176.92000000000002,25.875,3.0,56.75,0.019059709821428572,-2.7542288643973216,-0.0024298095703125,0.7376011439732143,33.88968,0.8833142873219081,0.08861485481262207,-0.19940800121852328
0.379915,33.27,-146.07125,19.875,3.5,58.25,-0.05474644252232143,-0.019949776785714284,-0.0015315464564732142,0.7356022426060268,33.892353,0.8842457165036882,0.09117028372628348,-0.20045714276177543
0.378636,33.27,91.640625,23.875,0.375,56.875,0.0418011474609375,2.587620326450893,-0.0023997279575892856,0.7340720040457589,33.889984,0.8856331491470337,0.09200228895459857,-0.1964022854396275
0.376077,33.27,161.49874999999997,33.25,0.75,55.875,-0.025798252650669644,4.710431780133929,-0.0028363037109375,0.7346649169921875,33.895027,0.8845725767953055,0.09256456920078822,-0.19403885773250035
0.376077,33.27,17.2125,36.875,3.125,51.25,0.0107757568359375,6.430899483816964,-0.0018674142020089286,0.7342463902064732,33.89318,0.8843474299567087,0.09003657272883824,-0.1929554285321917
0.382473,33.27,-116.978125,39.25,2.75,49.375,0.057706473214285715,7.184456961495536,-0.0014787074497767858,0.7343771798270089,33.895535,0.886768001147679,0.08796913691929409,-0.19902857201439994
0.401661,33.27,-4.893125000000001,36.375,2.375,51.125,-0.0479132080078125,6.115809849330357,-0.0030416434151785713,0.7361014229910714,33.892303,0.8864434269496373,0.08495999881199429,-0.1922034284046718
0.38759,33.27,151.90375,36.625,2.0,51.125,0.011015101841517856,3.8178885323660716,-0.0014713832310267857,0.7384316580636161,33.89384,0.8894834354945591,0.08247314385005405,-0.19185714142663138
0.386311,33.29,37.74625,37.0,2.0,51.0,0.016846749441964286,1.4072352818080358,-0.0030110386439732143,0.7364785330636161,33.893658,0.8868240063531058,0.07783428600856236,-0.19468456949506488
0.382473,33.29,-19.33625,37.0,2.125,51.0,-0.04563694545200893,-0.6232038225446429,-0.00191162109375,0.7357744489397321,33.893257,0.8881828580583845,0.07899085112980433,-0.19550628457750593
0.377356,33.29,-34.26375,37.0,2.25,50.875,0.0579345703125,-2.30340576171875,-0.0018836321149553572,0.7364610944475446,33.89538,0.8889462906973703,0.07775885650089809,-0.19544228451592582
0.376077,33.29,-70.14,36.875,2.625,51.0,-0.0310382080078125,-3.720546177455357,-0.002529994419642857,0.7367967878069196,33.892883,0.8874480077198573,0.07504570756639753,-0.1963405704498291
0.376077,33.29,-23.564999999999998,37.0,2.625,51.0,-0.011385498046875,-4.472420828683036,-0.0024873570033482144,0.7367728097098214,33.892895,0.8879474333354405,0.07701485429491316,-0.20145142895834786
0.374798,33.29,4.545,36.625,2.25,51.0,0.049910888671875,-4.567208426339286,-0.0021478271484375,0.7365461077008929,33.896965,0.8844491447721209,0.07711656502314976,-0.20410285677228654
0.373519,33.29,-9.2075,36.5,2.125,51.0,-0.05104012625558036,-4.549281529017857,-0.0013861083984375,0.7371063232421875,33.897476,0.8866514321735927,0.07974513530731202,-0.20295885903494698
0.374798,33.29,18.488125,36.25,2.375,51.0,0.014174717494419642,-4.332118443080357,-0.0025796944754464288,0.7369471958705357,33.8931,0.8852159976959229,0.08000227996281215,-0.20590514489582606
0.373519,33.27,-4.218750000000001,36.0,2.75,51.625,0.008991263253348215,-3.829066685267857,-0.0011922781808035715,0.7342660086495536,33.896393,0.8843337140764509,0.07851771695273263,-0.20809142691748483
0.373519,33.27,-4.530625,35.0,2.625,52.25,-0.048851754324776786,-2.9752284458705356,-0.002684326171875,0.7338474818638393,33.89825,0.884710864339556,0.08257599421909877,-0.21080228464944023
0.369681,33.27,10.86375,32.625,2.125,53.5,0.04285975864955357,-1.8620343889508928,-0.0020829554966517857,0.7370888846261161,33.89702,0.8851440014157976,0.08226171561649867,-0.20630056960242135
0.374798,33.27,-17.649375,33.0,2.125,53.5,0.007808925083705357,-0.39768763950892855,-0.0028873116629464287,0.7366616385323661,33.89863,0.8853245741980417,0.08177256788526263,-0.2053165708269392
0.373519,33.31,8.233125,33.125,2.0,53.25,-0.069737548828125,1.6107439313616072,-0.0016019112723214286,0.7353123256138393,33.899414,0.8844960028784615,0.08483428478240967,-0.20816228560038974
0.373519,33.31,28.725625,33.25,2.125,53.5,0.06669198172433036,3.7349766322544644,-0.002993251255580357,0.7386496407645089,33.89858,0.8811805731909615,0.08601371220179967,-0.2092834278515407
0.37224,33.31,-24.938125,33.375,2.0,53.125,-0.029301321847098213,5.077165876116071,-0.0018213762555803572,0.7375313895089286,33.900208,0.8834251403808594,0.08479656968797956,-0.21314514364515033
0.374798,33.31,4.198125,33.0,1.875,53.375,-0.003370448521205357,4.92364501953125,-0.0021650913783482144,0.7365482875279018,33.903324,0.8841691412244524,0.08304685865129743,-0.20985942806516375
0.37224,33.33,-0.11750000000000016,32.625,2.0,53.75,0.05873683384486607,3.4810965401785716,-0.002251674107142857,0.7359488351004464,33.905445,0.8836754281180246,0.08305713926042829,-0.21059885740280151
0.374798,33.33,-9.1975,32.875,2.0,53.75,-0.024772862025669643,1.943115234375,-0.0026422119140625,0.7392381940569196,33.904045,0.8846879965918405,0.08263084956577846,-0.21043999910354613
0.374798,33.33,19.8675,33.125,2.0,53.25,-0.005151541573660714,0.90234375,-0.002319423130580357,0.7378758021763393,33.901573,0.8843245731081282,0.08120456423078265,-0.21239199876785278
0.37224,33.33,-12.231875,33.0,2.0,53.25,0.06944013323102678,0.14122663225446427,-0.0007625034877232142,0.7377646309988839,33.904114,0.8841565677097866,0.08097943305969238,-0.20793371404920305
0.370961,33.29,-20.93,33.875,2.0,53.0,-0.060713588169642854,-0.43687220982142855,-0.0021331787109375,0.7386561802455357,33.905224,0.8852617195674352,0.08055199554988317,-0.20608685834067209
0.367123,33.29,26.050624999999997,34.875,2.625,52.0,0.0057157679966517855,-0.6581333705357143,-0.0020701381138392857,0.7384883335658482,33.907177,0.8867405714307512,0.07739199706486294,-0.20273371628352574
0.37224,33.29,12.935,36.25,3.25,50.875,0.047159336635044645,-0.6706717354910714,-0.002037440708705357,0.7328556605747768,33.908646,0.8849622930799211,0.0782022796358381,-0.20552571535110473
0.37224,33.29,-13.440624999999999,36.875,4.375,51.25,-0.06766453334263393,-0.7250279017857143,-0.0023591831752232144,0.7388698032924107,33.907528,0.8849519988468715,0.08067199434552874,-0.20827542543411254
0.374798,33.31,18.86875,38.5,4.75,49.375,0.035501011439732146,-0.6639491489955357,-0.0025595528738839284,0.7363215855189732,33.907776,0.8841040025438581,0.08180342469896588,-0.2072182846069336
0.405498,33.31,-2.9581250000000003,38.125,4.375,50.0,0.023614327566964285,-0.4927455357142857,-0.0016411481584821428,0.73907470703125,33.909325,0.8849542876652309,0.08170399802071708,-0.20760342734200612
0.399102,33.31,37.265,37.125,4.0,50.125,-0.08148193359375,-0.16146414620535715,-0.0015631975446428572,0.73663330078125,33.90884,0.8863017170769828,0.08043656621660505,-0.20219657182693482
0.392707,33.31,-14.378125,37.125,3.375,50.125,0.06079153878348214,0.6540091378348214,-0.0023678152901785714,0.7379542759486607,33.909218,0.8868148599352156,0.0821794251033238,-0.19720000062670026
0.388869,33.29,-2.4025000000000007,37.625,3.0,50.125,-0.021223493303571428,2.211268833705357,-0.0026861572265625,0.7369777134486607,33.91192,0.8864639956610544,0.0817382778440203,-0.19942628622055053
0.38759,33.29,26.781875,37.375,3.0,50.25,-0.008333391462053572,3.864467075892857,-0.002406005859375,0.7380327497209821,33.909817,0.8844765731266566,0.08498056888580323,-0.20214285714285715
0.381194,33.29,-31.72375,37.375,3.0,50.25,0.06023856026785714,4.855887276785714,-0.0019124058314732143,0.738861083984375,33.912563,0.883160001209804,0.08453485761369978,-0.20363771642957415
0.382473,33.29,-61.116875,34.375,3.125,52.25,-0.05042018345424107,4.867039271763393,-0.0021514892578125,0.7395063127790179,33.91495,0.8850057125091553,0.08472685268947057,-0.20301028524126324
0.378636,33.31,-1.6643749999999997,23.25,3.375,57.875,0.024262782505580355,3.6497802734375,-0.0015299769810267858,0.7376883370535714,33.913383,0.8862491491862706,0.08454171248844691,-0.20178514276232037
0.516786,33.31,10.65875,23.5,3.375,58.0,-0.0036409214564732144,1.7313319614955358,-0.001977015904017857,0.738128662109375,33.914734,0.8859691422326225,0.0788457087108067,-0.2053737153325762
0.607608,33.31,-4.801875000000001,24.0,3.875,57.875,-0.04415300641741071,-0.105224609375,-0.0024423653738839288,0.7384272984095982,33.91591,0.884142861366272,0.08150742667061942,-0.2055485728808812
0.589699,33.31,-15.333124999999999,26.875,4.375,57.0,0.055107421875,-1.4209420340401786,-0.0025284249441964285,0.7387804303850446,33.917484,0.885341717175075,0.0814285693849836,-0.20605028799601963
0.571791,33.31,-97.243125,28.125,4.5,56.125,-0.015551409040178571,-2.5232020786830356,-0.0026717703683035716,0.7376708984375,33.9161,0.8852708578109741,0.08031199795859201,-0.20860456909452166
0.543649,33.31,24.24625,28.5,3.875,56.0,-0.01856166294642857,-3.1731044224330356,-0.0016976492745535714,0.7386954171316964,33.91516,0.8844914293289184,0.08127428122929165,-0.20734285490853446
0.520624,33.31,108.47312500000001,29.125,3.875,55.75,0.06307774135044643,-3.314357212611607,-0.0026048060825892855,0.7378387451171875,33.915424,0.8852971403939384,0.08228228092193604,-0.20796914202826364
0.505274,33.31,60.54,29.0,4.0,55.75,-0.044709908621651785,-3.0691615513392856,-0.0019485037667410713,0.7384883335658482,33.91813,0.884741712297712,0.07801600047520228,-0.20760342836380005
0.492482,33.34,54.306875,29.25,4.0,55.25,-0.020296194893973215,-2.4701363699776784,-0.002032470703125,0.7390921456473214,33.916676,0.8860422890526908,0.08002057143620082,-0.20751771381923131
0.478411,33.34,8.364374999999999,29.0,3.5,55.625,0.05132001604352678,-1.4199654715401786,-0.002922886439732143,0.7394583565848214,33.919365,0.886528000831604,0.08013828209468296,-0.2024582873071943
0.478411,33.34,-31.68375,29.5,3.375,55.25,-0.056590576171875,0.21868024553571427,-0.0019396100725446429,0.7390943254743304,33.91712,0.8853062874930245,0.08197370733533586,-0.19879428591047016
0.469457,33.34,-27.95625,29.625,3.0,55.125,0.015198015485491071,2.094996861049107,-0.001715175083705357,0.7387651715959821,33.916557,0.8867200061253139,0.0840742826461792,-0.2026068561417716
0.469457,33.33,-20.013125,29.75,3.0,55.25,0.06052760532924107,3.5942208426339284,-0.0021677071707589288,0.7400556291852679,33.91703,0.8827131448473249,0.08481370653424944,-0.2041154285839626
0.46562,33.33,-17.9725,29.875,3.0,55.375,-0.05484872000558036,4.348196847098214,-0.002016514369419643,0.7394038609095982,33.919407,0.8838171461650304,0.08671200139181955,-0.20638743025915962
0.459224,33.33,8.259999999999998,29.625,3.0,55.25,0.021405814034598215,3.749546595982143,-0.0026343645368303572,0.7380545479910714,33.918594,0.8850057186399187,0.08362628187452044,-0.2055805744443621
0.456665,33.33,-2.671875,29.5,3.375,55.375,0.051705060686383926,1.9739292689732142,-0.0027353341238839286,0.7382267543247768,33.9177,0.8853222819737026,0.08395771367209298,-0.20504685504095896
0.455386,33.31,-3.9931249999999996,29.875,4.0,55.25,-0.05095432826450893,-0.17442975725446427,-0.002809622628348214,0.7384120396205357,33.916283,0.885123427936009,0.0835348585673741,-0.21083999838147843
0.452828,33.31,12.976875,29.375,4.0,55.625,0.02706141880580357,-1.9675118582589286,-0.0019218226841517857,0.73773193359375,33.919777,0.8816399969373431,0.08108228070395333,-0.2141760015487671
0.44899,33.31,-7.3412500000000005,29.625,4.0,55.125,-0.009434640066964286,-3.059849330357143,-0.0011831229073660714,0.7387019566127232,33.921467,0.8819839954376221,0.08535885674612863,-0.2178491428920201
0.447711,33.31,-1.12875,30.0,4.0,55.125,-0.04565107073102678,-3.568028041294643,-0.0028938511439732142,0.7389308384486607,33.920357,0.8844308567047119,0.08586171013968331,-0.2132857162611825
0.445153,33.29,8.5225,30.0,4.0,55.0,0.05462847028459821,-3.668605259486607,-0.0022927420479910716,0.7390485491071429,33.921635,0.8833428519112724,0.08479885646275112,-0.21062857253210884
0.442594,33.29,-13.764375000000001,30.0,4.0,55.0,-0.0006304059709821429,-3.3213326590401784,-0.001885463169642857,0.7380719866071429,33.91933,0.8835645764214652,0.0786902836390904,-0.21258285624640327
0.438757,33.29,2.504375,30.0,4.0,55.0,-0.06595145089285714,-2.4495326450892856,-0.0024721854073660714,0.7390311104910714,33.9188,0.8847942890439715,0.08028571673801967,-0.20902057204927718
0.440036,33.29,3.2456250000000004,30.0,4.0,55.0,0.05475559779575893,-1.0323399135044642,-0.0019864327566964284,0.7386540004185268,33.9224,0.8843817179543632,0.07925942284720285,-0.20954628603799003
0.438757,33.31,-21.275,30.0,4.0,55.0,-0.0038140869140625,0.7807965959821429,-0.00271728515625,0.738006591796875,33.922546,0.8846182809557234,0.08007313796452113,-0.2131017119543893
0.436199,33.31,8.848125,30.0,4.0,55.0,-0.03835013253348214,2.618678501674107,-0.0016986955915178571,0.7382005964006696,33.92187,0.8810251494816371,0.0815474271774292,-0.2162011422429766
0.43364,33.31,8.921875,30.125,3.875,55.0,0.06245806012834822,3.9626988002232144,-0.0035067313058035716,0.7359488351004464,33.920486,0.8815748609815325,0.0814971399307251,-0.21891542979649134
0.434919,33.31,-20.950000000000003,30.0,4.0,55.0,-0.04361049107142857,4.169564383370536,-0.0018511962890625,0.7393602643694196,33.920845,0.8818868596213204,0.0798880011694772,-0.22160685777664185
0.43364,33.33,9.1725,30.0,3.75,55.0,0.007573503766741071,3.019688197544643,-0.0020850481305803572,0.7391553606305804,33.91983,0.8829165724345616,0.08255199568612234,-0.21836571659360612
0.432361,33.33,9.550625,30.0,3.75,55.0,0.07100385393415179,1.2623203822544642,-0.002421962193080357,0.7381787981305804,33.922646,0.8831782906396048,0.08131999628884452,-0.21498971360070365
0.425965,33.33,-13.581875,30.0,4.0,55.0,-0.048448399135044645,-0.5484357561383929,-0.002127162388392857,0.7380327497209821,33.923897,0.8829211412157332,0.0800605685370309,-0.21566057205200195
0.431082,33.33,14.975000000000001,30.0,4.0,55.0,-0.011062709263392857,-1.9781232561383928,-0.0015577043805803572,0.7382986886160714,33.923744,0.8838297169549124,0.08040799822126116,-0.21478285789489746
0.423407,33.31,5.7787500000000005,30.0,4.0,55.0,0.058697596958705356,-2.692234584263393,-0.002727486746651786,0.7386561802455357,33.92649,0.882698290007455,0.08172571454729352,-0.21555999892098562
0.427244,33.31,-8.85,30.0,4.0,55.0,-0.05588588169642857,-2.7289603097098216,-0.0023275320870535716,0.7375510079520089,33.92618,0.8832502841949463,0.08252342632838658,-0.21517371313912528
0.428523,33.31,6.5275,30.0,4.0,55.0,0.019346400669642858,-2.39898681640625,-0.0027852957589285716,0.7397809709821429,33.923878,0.8833931452887399,0.08071771281106131,-0.2152045692716326
0.427244,33.31,-9.276875,29.875,3.75,55.0,0.0021766008649553572,-2.111415318080357,-0.0015095738002232142,0.7384163992745536,33.926388,0.8826354272024972,0.0821394225529262,-0.21788686003003802
0.427244,33.31,-7.176875,30.0,3.625,55.25,-0.05054364885602679,-1.6184169224330358,-0.0028111921037946427,0.7368316650390625,33.92671,0.8835337141581944,0.08267199856894357,-0.21413485833576748
0.425965,33.31,8.950624999999999,29.875,3.25,55.25,0.055734165736607146,-0.6009957449776786,-0.0017886788504464285,0.7391793387276786,33.925877,0.8833988550731114,0.08177028587886265,-0.2136182829311916
0.425965,33.31,-14.58125,30.0,3.125,55.125,-0.008743024553571429,0.8566807338169643,-0.00240966796875,0.7393886021205357,33.926083,0.8832308626174927,0.08276342460087367,-0.21505942753383092
0.425965,33.31,-1.3287500000000008,30.0,3.0,55.375,-0.024608851841517856,2.32720947265625,-0.002252720424107143,0.7375466482979911,33.925407,0.8804685708454677,0.0863874271937779,-0.22269828421728952
0.424686,33.33,4.885,29.625,3.125,55.375,0.06097935267857143,3.544093540736607,-0.0021240234375,0.7376447405133929,33.925457,0.8788057170595441,0.08700114386422293,-0.22569714307785035
0.423407,33.33,-12.951875000000001,29.375,3.125,55.25,-0.04308811732700893,4.212297712053571,-0.0020295933314732144,0.7375422886439732,33.929317,0.8789760044642857,0.08596913950783866,-0.22879200015749251
0.423407,33.33,13.764375,29.875,3.375,55.25,0.004355294363839286,3.6253836495535716,-0.001768798828125,0.7384403773716518,33.925602,0.879478851727077,0.08405371257237025,-0.22824914251055037
0.424686,33.33,9.185,30.0,3.5,55.125,0.06465140206473215,1.9627598353794642,-0.0026461356026785715,0.7400011335100446,33.92617,0.8817097187042237,0.08270743301936559,-0.22349828686032977
0.41829,33.33,-9.27,30.0,3.625,55.0,-0.044066423688616074,0.12985665457589285,-0.0020863560267857144,0.7392185756138393,33.929108,0.8820788635526384,0.0841302878516061,-0.2213862865311759
0.423407,33.33,19.18875,30.0,3.875,55.0,0.0050628662109375,-1.1911446707589286,-0.0021598597935267856,0.7397242954799107,33.926525,0.8808228581292289,0.08375542640686034,-0.2211142863546099
0.420848,33.33,13.063125,30.0,4.125,55.25,0.0345977783203125,-2.0640781947544644,-0.002674124581473214,0.7387411934988839,33.92612,0.8809222875322614,0.08449485506330218,-0.22345371416636875
0.422128,33.33,1.6593749999999998,30.0,4.375,55.375,-0.06955967494419643,-2.6030447823660716,-0.0030824497767857144,0.7403935023716518,33.929256,0.8812800032751901,0.08406285626547677,-0.22385028634752546
0.423407,33.31,11.036249999999999,29.875,3.75,55.0,0.04078072684151786,-2.6276419503348216,-0.0013926478794642858,0.7383270263671875,33.9304,0.8807874284471784,0.08391999857766287,-0.22301485879080638
0.424686,33.31,-16.195625,30.0,3.0,55.0,0.012919660295758929,-2.205174037388393,-0.0021373639787946428,0.7390681675502232,33.928165,0.8812731436320713,0.08369257245744978,-0.22230971336364747
0.414453,33.31,46.643125,30.0,3.0,55.0,-0.06844247000558036,-1.6158796037946428,-0.0019471958705357144,0.7398790631975446,33.928204,0.8824411460331508,0.08477827889578683,-0.22081828798566547
0.409336,33.31,64.63875,30.625,3.0,55.0,0.05630885532924107,-0.6908394949776786,-0.0024428885323660716,0.7404065813337054,33.929802,0.8813017184393747,0.08531656537737166,-0.21694971357073103
0.409336,33.33,-65.94749999999999,30.375,3.0,55.0,-0.0262554931640625,0.7039707728794643,-0.0026484898158482145,0.7391488211495536,33.92907,0.8814171375547136,0.08560114247458321,-0.2185885729108538
0.406777,33.33,-100.769375,31.0,3.0,55.0,-0.004768327985491072,2.376220703125,-0.0027060372488839288,0.7410910470145089,33.929672,0.8806880044937134,0.08625371319907052,-0.22116571732929774
0.406777,33.33,-44.7,31.0,2.875,54.0,0.06896589006696428,3.6844046456473216,-0.002305821010044643,0.7393253871372768,33.930523,0.8804480000904629,0.08640571321759904,-0.22154971395220074
0.40294,33.33,-25.804375,49.375,1.875,40.875,-0.044424525669642854,3.9116908482142856,-0.003352137974330357,0.7386409214564732,33.932304,0.8793165676934378,0.07846399852207729,-0.2202800018446786
0.406777,33.33,44.351875,55.875,4.5,14.875,0.016557181222098215,2.6978062220982144,-0.0025001743861607145,0.7390332903180804,33.929535,0.8862114320482527,0.08524571418762207,-0.21512228659221105
0.396544,33.33,37.936875,60.125,4.5,-25.0,0.0183343505859375,0.21205357142857142,-0.0017701067243303572,0.7394016810825893,33.930637,0.8813039970397949,0.09066171646118164,-0.22271657058170863
0.388869,33.33,26.971875,65.0,11.25,0.0,-0.06329616001674107,-2.158604213169643,-0.003573434012276786,0.7402779715401786,33.930206,0.8815977171489171,0.08582171644483294,-0.22251314333506994
0.392707,33.33,59.32875,34.25,5.25,45.375,-0.0006432233537946428,-2.904453822544643,-0.002358921595982143,0.7388523646763393,33.932392,0.8822571420669556,0.08139314106532505,-0.21595314366476875
0.382473,33.33,-9.076875000000001,20.125,1.625,59.0,0.007593645368303571,-3.1299002511160716,-0.0023583984375,0.7400076729910714,33.934555,0.8773565748759679,0.09718400410243443,-0.21742742913109916
0.38759,33.33,-53.14874999999999,23.75,5.25,61.75,-0.00886962890625,-3.3958653041294644,-0.0016618129185267858,0.7395172119140625,33.932575,0.8839222921643939,0.09236685616629464,-0.21145485877990722
0.390148,33.33,-68.70125,20.5,4.625,59.75,0.07537379673549108,-3.193812779017857,-0.0012916782924107142,0.7418910435267857,33.932953,0.8842228610174997,0.08540228366851807,-0.2033725711277553
0.390148,33.33,-190.1125,17.625,6.0,55.375,-0.041509486607142855,-2.0130092075892856,-0.0026864188058035713,0.7433079310825893,33.931023,0.8854114287240165,0.08441713809967041,-0.20220457315444945
0.388869,33.33,82.133125,19.5,4.5,61.875,0.027435215541294643,-0.23634556361607142,-0.00140625,0.7402016775948661,33.93019,0.8874822909491403,0.08652228355407715,-0.19006514208657402
0.385032,33.33,197.489375,21.625,2.375,59.875,0.019525059291294642,1.6675589425223214,-0.003094482421875,0.7405831473214286,33.93001,0.8871977179391044,0.08776571682521275,-0.19535771233694893
0.381194,33.33,129.76999999999998,29.75,5.25,54.625,-0.058037109375,3.65570068359375,-0.0030523681640625,0.7386060442243304,33.936207,0.8832045779909407,0.08646056992667062,-0.19588342836924963
0.382473,33.33,34.980000000000004,43.75,6.875,45.375,0.056856602260044645,4.843967982700893,-0.002729317801339286,0.7413548060825893,33.935345,0.8864114277703421,0.08759314605167934,-0.19548571450369698
0.383752,33.33,-221.060625,49.875,9.0,40.625,-0.03389517647879464,4.311767578125,-0.0022061593191964285,0.7395477294921875,33.935074,0.8857142857142857,0.0870125709261213,-0.20034857170922415
0.378636,33.33,-39.666875,30.0,4.5,53.75,0.006824602399553572,2.385410853794643,-0.0022506277901785713,0.7370409284319196,33.936985,0.8862902845655168,0.08508913721357073,-0.19834514141082762
0.377356,33.33,126.48937500000001,36.25,5.625,49.875,0.03472516741071428,0.27923583984375,-0.0025098528180803573,0.7385166713169643,33.939693,0.8841337163107735,0.08960914066859654,-0.2001188577924456
0.377356,33.33,55.371875,45.25,6.5,42.875,-0.05160330636160714,-1.3835013253348214,-0.0032441057477678573,0.7396763392857143,33.937214,0.884958861214774,0.09369599751063755,-0.19800685780388969
0.374798,33.33,-114.733125,58.875,6.0,23.75,0.036910400390625,-2.2707955496651784,-0.0020322091238839284,0.7415815080915179,33.935684,0.8853302833012172,0.09018971511295863,-0.19666514362607684
0.379915,33.33,-146.90625,61.5,7.375,-0.375,-0.0034188406808035713,-2.658290318080357,-0.0030314418247767857,0.7387782505580357,33.938343,0.8853794288635254,0.08908342633928572,-0.1964777135848999
0.373519,33.33,64.27374999999999,58.5,3.625,-19.875,-0.03222394670758929,-2.7118007114955356,-0.0024217006138392855,0.7439073835100446,33.938896,0.8855542918613979,0.08872685432434083,-0.19386057240622384
0.37224,33.33,191.42125,62.0,-1.125,-27.875,0.05363551548549107,-2.2733677455357144,-0.0022276088169642856,0.7401144845145089,33.940353,0.8860102871486119,0.08985714163099016,-0.1952799998010908
0.370961,33.29,32.590624999999996,63.5,6.5,-6.0,-0.04996268136160714,-1.4329310825892858,-0.0015498570033482143,0.7396262032645089,33.939873,0.8870251423971993,0.09336571625300816,-0.19895542791911533
0.370961,33.29,-110.84812500000001,36.625,8.0,41.25,-0.04481244768415179,-0.4478759765625,-0.0022399030412946427,0.7408469063895089,33.93731,0.8831794255120413,0.09146056924547467,-0.2051588589804513
0.369681,33.29,-108.481875,13.75,3.0,60.625,0.08319501604352679,0.5239606584821429,-0.002375662667410714,0.7414202008928571,33.942657,0.8816845723560878,0.09497714587620326,-0.2088719994681222
0.378636,33.29,-11.903125000000003,15.625,5.5,60.0,-0.035932094029017855,1.6826869419642858,-0.0024148995535714286,0.7409188406808036,33.941307,0.8819497108459473,0.09653257097516742,-0.2016377183369228
0.382473,33.31,73.079375,18.875,3.75,62.125,0.0096771240234375,2.955078125,-0.0021321323939732144,0.7399771554129464,33.941525,0.8838559995378766,0.09155542850494384,-0.20105257034301757
0.382473,33.31,-118.485625,18.625,3.375,57.375,0.04319170270647321,3.8828909737723216,-0.0025655691964285715,0.7402300153459821,33.943314,0.8841725696836199,0.09283086163657052,-0.2030868581363133
0.382473,33.31,-35.67375,16.25,3.125,60.875,-0.04311819893973214,3.827601841517857,-0.0019375174386160713,0.7391553606305804,33.942455,0.8840217113494873,0.09282057762145995,-0.20401257242475238
0.381194,33.31,226.666875,18.875,0.875,60.5,0.039762660435267855,2.532924107142857,-0.001885986328125,0.7385842459542411,33.942394,0.8830091408320836,0.09066171714237758,-0.20462057147707258
0.382473,33.31,73.830625,24.0,2.0,59.0,-0.023404017857142856,0.5723179408482143,-0.002053135463169643,0.7416730608258929,33.940792,0.8832102864129203,0.09585371153695242,-0.20582742861339023
0.381194,33.31,56.45625,24.0,1.875,57.375,-0.03996590750558036,-1.1260201590401786,-0.0020097133091517855,0.7407248360770089,33.946457,0.8832125759124756,0.09109713963099889,-0.20515771389007567
0.386311,33.31,-134.16062499999998,28.375,3.5,56.375,0.08562587193080357,-2.2480032784598216,-0.0030050223214285712,0.7420654296875,33.94623,0.8840057141440255,0.0911222859791347,-0.20365142958504814
0.390148,33.31,-64.5275,29.875,2.25,54.875,-0.05196271623883929,-2.647312709263393,-0.0021677071707589288,0.7397853306361607,33.946438,0.8838080051967075,0.08890057836260114,-0.20271885701588221
0.383752,33.34,79.99312499999999,32.75,4.125,54.25,-0.0009597342354910715,-2.3439418247767856,-0.0024957275390625,0.7440883091517857,33.94366,0.8868502909796578,0.08915543011256627,-0.19568228721618652
0.382473,33.34,39.676249999999996,29.0,2.625,55.0,-0.0029299490792410714,-1.8313511439732142,-0.001566859654017857,0.7417929513113839,33.94718,0.8860731376920428,0.08391314234052386,-0.19652457203183854
0.385032,33.34,-88.969375,31.375,3.0,54.75,-0.03885288783482143,-1.4136090959821428,-0.0018967110770089287,0.7427956717354911,33.94885,0.8862914269311087,0.0867737122944423,-0.2002868550164359
0.383752,33.34,-4.109375000000001,32.125,3.0,54.0,0.06667445591517857,-0.9228777204241071,-0.0035893903459821427,0.7437460763113839,33.951145,0.8844457129069737,0.08766628265380859,-0.2017382870401655
0.381194,33.33,-27.697499999999998,32.5,2.75,54.0,-0.028121337890625,0.019766671316964284,-0.0017222377232142857,0.7413809640066964,33.947845,0.8871074342727661,0.08435885293143136,-0.19280114276068552
0.381194,33.33,-1.3312499999999998,32.875,3.0,53.625,0.0013738141741071429,1.5014386858258928,-0.0014198521205357143,0.7405460902622768,33.949768,0.8878868620736259,0.08253828457423619,-0.1933565708569118
0.378636,33.33,18.37125,32.875,3.0,53.875,0.030257393973214287,2.8185337611607144,-0.0018938337053571429,0.7435389927455357,33.950916,0.8856937176840646,0.0805279963357108,-0.19915200063160488
0.377356,33.33,-16.71875,32.5,3.0,53.75,-0.036283656529017855,3.5938546316964284,-0.002245396205357143,0.7418060302734375,33.949444,0.8852057116372245,0.08380113942282541,-0.20352685826165334
0.378636,33.34,-24.161875000000002,32.375,3.0,54.0,0.06837105887276786,3.4946376255580356,-0.002589111328125,0.7409885951450893,33.95033,0.8852194288798741,0.08279656682695662,-0.20111428465162004
0.377356,33.34,-13.89375,32.25,3.0,54.0,-0.016987740652901786,2.2752772739955356,-0.0020254080636160714,0.7427607945033482,33.952385,0.8862948553902762,0.08310971191951207,-0.20061485597065518
0.377356,33.34,3.5225,32.0,3.0,54.0,-0.005827200753348214,0.5147443498883929,-0.0020431954520089284,0.7424447195870536,33.953125,0.8869782897404263,0.08214513914925711,-0.19849257060459682
0.369681,33.34,13.268125000000001,31.375,3.0,54.25,0.01467799595424107,-1.27490234375,-0.001558750697544643,0.7399924142020089,33.956352,0.885977144922529,0.0824422870363508,-0.2021977141925267
0.378636,33.33,-8.055,31.0,3.0,54.5,-0.06129664829799107,-2.5438319614955356,-0.002461460658482143,0.7417340959821429,33.95471,0.8853554310117449,0.08562171527317593,-0.20068800074713572
0.378636,33.33,10.513124999999999,31.25,3.0,54.75,0.0689813232421875,-2.9014369419642856,-0.0027740478515625,0.7370758056640625,33.954273,0.8867360026495797,0.08466856956481933,-0.19878057207380023
0.378636,33.33,-3.381875,31.0,3.0,55.0,-0.029190673828125,-2.8284127371651784,-0.0022171456473214285,0.7431771414620536,33.954044,0.8856091458456857,0.08385485512869699,-0.19954171419143676
0.378636,33.33,-6.943125,31.0,3.0,55.0,-0.015131574358258928,-2.4840087890625,-0.0018404715401785714,0.7426234654017857,33.955322,0.8870468602861676,0.0837039988381522,-0.19765600068228587
0.378636,33.31,3.824375,31.0,3.0,54.875,0.04811148507254464,-2.0031651088169644,-0.002424839564732143,0.7406507219587054,33.957966,0.8857257155009678,0.0831005689076015,-0.19932457106454032
0.378636,33.31,-9.411249999999999,31.0,3.0,55.0,-0.07144383021763392,-1.3729422433035714,-0.0019594900948660715,0.7432621547154018,33.958366,0.886425142288208,0.08502057075500488,-0.19855200120380948
0.378636,33.31,16.065624999999997,31.0,3.0,54.875,0.036252005440848216,-0.7045724051339286,-0.0017758614676339286,0.7440708705357143,33.956184,0.8870148577008928,0.08558171204158238,-0.19745371443884713
0.378636,33.31,4.710625,31.0,3.0,55.0,-0.0066229248046875,-0.07281494140625,-0.0030672781808035714,0.7437286376953125,33.959236,0.8866571405955723,0.08532914093562535,-0.19750971215111868
0.377356,33.33,4.544999999999999,30.375,3.0,55.0,-0.03277247837611607,1.0060860770089286,-0.0017669677734375,0.740081787109375,33.95953,0.8844171442304338,0.08572571277618408,-0.20261828524725778
0.378636,33.33,16.43875,30.375,2.625,55.0,0.07629952566964286,2.4482857840401784,-0.0028988211495535716,0.7416425432477679,33.955147,0.8840628549030849,0.087797714642116,-0.2030331437928336
0.370961,33.33,-3.4074999999999998,30.75,2.5,55.0,-0.042554495675223215,3.767238071986607,-0.0028914969308035713,0.7425471714564732,33.960712,0.8839451442446028,0.08624799932752336,-0.20148914234978813
0.377356,33.33,9.464375,30.75,2.625,55.0,0.010855276925223215,4.372462681361607,-0.0020675223214285713,0.7434517996651786,33.96577,0.8842857163293021,0.08630400044577462,-0.20469257150377546
0.378636,33.34,0.9675000000000001,30.875,2.625,55.0,0.01853707449776786,3.73260498046875,-0.0021279471261160714,0.7430049351283482,33.962807,0.8864239999226161,0.08739771774836949,-0.19702285630362373
0.377356,33.34,0.37812500000000027,31.0,3.0,54.875,-0.035803397042410715,2.24859619140625,-0.0018818010602678571,0.7433362688337054,33.961216,0.8857280015945435,0.08167771407536098,-0.20383200202669416
0.377356,33.34,17.71625,31.0,3.0,55.0,0.051400059291294646,0.7318812779017857,-0.0022440883091517858,0.74237060546875,33.962055,0.8854160043171474,0.08095999853951591,-0.206107428755079
0.377356,33.34,1.689375,31.0,3.0,55.0,-0.018702915736607144,-0.8762991768973214,-0.001804112025669643,0.74151611328125,33.96053,0.8851645721708026,0.0809577090399606,-0.2048011418751308
0.377356,33.33,2.7968749999999996,30.625,3.0,55.0,-0.020742972237723215,-2.2217843191964284,-0.002558768136160714,0.7436392647879464,33.962723,0.885718857220241,0.08432571138654436,-0.2043565733092172
0.377356,33.33,6.735625000000001,30.125,3.0,55.0,0.05915379115513393,-3.0825980050223216,-0.0020267159598214286,0.7429635184151786,33.965443,0.885274282182966,0.08392685345241002,-0.2063508575303214
0.377356,33.33,-12.745625,30.25,3.0,55.0,-0.062139979771205354,-3.517796107700893,-0.0021365792410714284,0.7419237409319196,33.96332,0.8834137187685285,0.08536113943372454,-0.20752685819353375
0.378636,33.33,7.776875,30.0,3.0,55.0,0.0290167236328125,-3.45867919921875,-0.003115147181919643,0.7429678780691964,33.965816,0.883956572668893,0.08532799652644567,-0.20860571452549526
0.377356,33.33,-6.1899999999999995,30.0,3.0,55.0,0.0024507359095982144,-3.1944405691964284,-0.002212960379464286,0.7409558977399554,33.970085,0.8834651415688651,0.08556228501456124,-0.21177257095064436
0.374798,33.33,-8.545,30.0,3.0,55.0,-0.0416510009765625,-2.6095755440848216,-0.0018433489118303572,0.7433558872767857,33.965878,0.8840228584834507,0.0853942837033953,-0.20605828659875053
0.378636,33.33,8.788125,30.0,3.0,55.0,0.07864327566964285,-1.3769182477678572,-0.002903529575892857,0.7423161097935268,33.96613,0.8849439968381609,0.08599885531834194,-0.2029028592790876
0.377356,33.33,-11.43,30.0,3.0,55.0,-0.0455914306640625,0.36564418247767855,-0.002215053013392857,0.7441558837890625,33.96665,0.8861531455176217,0.08494171006338937,-0.1994800009046282
0.377356,33.33,4.751250000000001,30.0,3.0,55.0,0.0103363037109375,2.348414829799107,-0.002763846261160714,0.7438332693917411,33.964584,0.8842525734220232,0.08595771108354841,-0.20649257149015154
0.377356,33.33,-4.04125,30.0,3.0,55.0,0.02099513462611607,3.9150477818080356,-0.0024211774553571427,0.7472643171037946,33.96736,0.8824217156001499,0.08648571559361048,-0.20587314196995327
0.378636,33.33,-14.8,30.0,3.0,55.0,-0.04653913225446429,4.458251953125,-0.0023215157645089285,0.7416229248046875,33.968216,0.8850651434489659,0.08504913534436907,-0.2053862854412624
0.377356,33.33,7.2524999999999995,30.25,3.0,55.0,0.07500601632254464,3.572056361607143,-0.0018702915736607143,0.7439771379743304,33.968113,0.8853451456342425,0.08437942845480782,-0.20285028491701398
0.377356,33.31,-8.415,30.125,3.0,55.0,-0.03701058523995536,1.7101091657366072,-0.002073800223214286,0.7421504429408482,33.97111,0.8861211456571306,0.08307085582188198,-0.2007211433138166
0.378636,33.31,4.25875,30.25,3.0,55.0,0.0030934361049107144,-0.06449672154017858,-0.0020615059988839286,0.7440359933035714,33.968452,0.8866628558295113,0.08262399809701101,-0.20029257025037492
0.377356,33.31,9.939375,30.25,3.0,55.0,0.03769252232142857,-1.4271153041294642,-0.002296142578125,0.7455705915178571,33.968765,0.8858857127598354,0.08090742792401995,-0.19975542851856776
0.378636,33.31,-7.38,30.0,3.0,55.0,-0.08191720145089286,-2.2396414620535716,-0.002097080775669643,0.7409515380859375,33.969067,0.8862651497977121,0.08201485225132533,-0.19770171437944684
0.373519,33.31,9.409375,30.0,3.0,55.0,0.07253644670758928,-2.472987583705357,-0.0021517508370535714,0.7437024797712054,33.96863,0.8870720005035401,0.08271313531058175,-0.19505828619003296
0.378636,33.31,-5.86125,30.0,3.0,55.0,-0.03267961774553572,-2.464634486607143,-0.002122715541294643,0.7447073800223214,33.969074,0.8864605740138463,0.08231771264757429,-0.19573599917548043
0.377356,33.31,1.2174999999999998,30.25,3.0,55.0,-0.017863507952008927,-2.153895786830357,-0.0022121756417410716,0.7445395333426339,33.97182,0.8874091475350516,0.08221371241978237,-0.1963965742928641
0.378636,33.31,5.04625,30.25,3.0,55.0,0.05119341169084821,-1.7066563197544642,-0.0022786167689732143,0.7403281075613839,33.97156,0.8869782842908587,0.0814811406816755,-0.19811999934060234
0.377356,33.33,-13.07875,30.0,3.0,55.0,-0.07579546247209822,-1.1787370954241072,-0.0024436732700892855,0.7462506975446429,33.970016,0.8874651466097151,0.08361371312822614,-0.1961097138268607
0.377356,33.33,13.118125,30.125,3.0,55.0,0.05282461983816964,-0.19401332310267858,-0.0021713692801339285,0.7444501604352679,33.971394,0.8859931482587542,0.08377600056784494,-0.19672228574752806
0.377356,33.33,-2.3362499999999997,30.25,3.0,55.0,-0.008224051339285714,1.2219761439732142,-0.0016615513392857144,0.7453787667410714,33.97198,0.8849748570578438,0.08457485743931362,-0.20305485725402833
0.377356,33.33,-2.3125,30.25,3.0,55.0,-0.015209001813616072,2.7188895089285716,-0.002831333705357143,0.7457057407924107,33.969604,0.8835177135467529,0.08579085213797433,-0.2013771448816572
0.378636,33.34,6.205,30.125,3.0,55.0,0.06398489815848214,3.7468348911830356,-0.002324916294642857,0.7439531598772321,33.975082,0.8842502900532314,0.08591085161481585,-0.20406285796846663
0.378636,33.34,-12.783125,30.5,3.0,55.0,-0.05497140066964286,3.8437587193080356,-0.0027392578125,0.7447400774274554,33.972412,0.8873977143423898,0.08219771180834089,-0.20022514411381312
0.378636,33.34,9.3125,31.0,3.0,54.625,0.014972011021205357,3.0187290736607144,-0.0019974190848214284,0.7447444370814732,33.97423,0.8908708620071412,0.08124113832201277,-0.19955885648727417
0.368402,33.34,7.18,32.5,3.375,54.0,-0.011738106863839286,1.4353550502232142,-0.0023395647321428573,0.7442583356584821,33.970844,0.8982845687866211,0.05924571446010045,-0.18021142891475134
0.378636,33.33,-1.0206250000000001,33.375,3.75,53.25,-0.009532209123883929,-3.487723214285714e-05,-0.002536795479910714,0.7440752301897321,33.974438,0.8929154334749494,0.02904457058225359,-0.19561028548649378
0.378636,33.33,14.701875000000001,33.0,4.5,53.375,0.06207013811383929,-1.2364065987723214,-0.0015731375558035714,0.7479575020926339,33.976227,0.8917325755528042,-0.008043429170336042,-0.22760914393833706
0.377356,33.33,2.9187499999999997,33.375,4.375,53.375,-0.08472316196986607,-2.20367431640625,-0.001644810267857143,0.7445613316127232,33.97508,0.880769145829337,-0.015060572624206544,-0.24966971567698887
0.376077,33.33,1.5243749999999998,34.0,1.75,53.125,-0.007756609235491071,-2.5717075892857144,-0.002897774832589286,0.746185302734375,33.979218,0.9075611421040126,-0.02674628700528826,-0.20281600032533917
0.374798,33.31,1.07375,36.375,-0.375,51.625,0.052533743722098215,-2.5311802455357144,-0.002879202706473214,0.7477264404296875,33.97644,0.8709885740280151,0.037012571607317246,-0.22893714087350028
0.377356,33.31,-11.66875,28.125,-0.875,55.875,-0.027230137416294643,-2.0013863699776784,-0.002180262974330357,0.7443651471819196,33.9769,0.8589828566142491,0.06509599549429758,-0.24510399988719395
0.378636,33.31,8.6275,30.625,-2.75,54.75,0.10743425641741071,-0.9093802315848214,-0.00251953125,0.7464512416294643,33.97813,0.8905211455481393,0.10953714302607945,-0.2648925726754325
0.381194,33.31,-9.89625,31.5,-3.5,54.0,-0.048945138113839284,0.9368809291294643,-0.0021852329799107143,0.7467389787946429,33.979088,0.856796567099435,0.16081942830766952,-0.2621988558769226
0.381194,33.33,2.2112500000000006,33.5,-2.625,53.0,-0.03064793178013393,3.1617344447544644,-0.002329886300223214,0.7459368024553571,33.978325,0.8705222872325352,0.14197142941611154,-0.22702628578458514
0.378636,33.33,82.255,38.625,-2.875,49.625,-0.015454624720982142,4.788905552455357,-0.003109130859375,0.7432381766183036,33.979187,0.8826160029002599,0.04819314479827881,-0.23783999919891358
0.374798,33.33,39.0275,44.0,-0.75,45.0,0.014640328543526785,5.796979631696429,-0.002315499441964286,0.7446812220982143,33.976723,0.901923428944179,-0.0023817150933401923,-0.25818857090813774
0.376077,33.33,-61.3425,40.875,3.125,47.5,0.13676513671875,6.924176897321429,-0.0028059605189732144,0.7432795933314732,33.978367,0.8672868578774588,-0.02227656977517264,-0.288516571521759
0.37224,33.33,-148.79500000000002,32.25,6.875,53.625,0.028631678989955358,8.597324916294642,-0.0022027587890625,0.7448708670479911,33.9793,0.8464320019313267,-0.012309714385441371,-0.33322857107434956
0.377356,33.33,31.814375,34.625,5.0,52.375,-0.007404261997767858,10.848536900111608,-0.001133946010044643,0.7471466064453125,33.978573,0.8702399982724871,0.0036091460500444683,-0.315084570816585
0.377356,33.33,40.17375,35.75,1.875,51.125,-0.11899318150111607,10.95147705078125,-0.0024292864118303573,0.7449667794363839,33.980785,0.8709519985743931,0.04421599864959717,-0.30105485609599525
0.374798,33.33,-20.321875000000002,35.75,2.125,51.5,0.00298828125,6.481096540178571,-0.0018454415457589285,0.7475237165178571,33.98036,0.8635074274880545,0.046296000480651855,-0.3199439982005528
0.376077,33.31,-33.59625,36.375,3.5,51.0,-0.0516229248046875,0.14475795200892858,-0.002305821010044643,0.7461504255022321,33.97856,0.8576811381748745,0.026412572179521834,-0.3254468560218811
0.374798,33.31,-26.413125,33.375,3.25,52.875,-0.06505449567522321,-5.593854631696429,-0.0016445486886160715,0.7466670445033482,33.978592,0.8542091417312622,0.04143085615975516,-0.3365405719620841
